delay,freq,condition,trials.thisRepN,trials.thisTrialN,trials.thisN,trials.thisIndex,polygon.started,polygon_2.started,key_resp.started,polygon.stopped,key_resp.keys,key_resp.rt,sound_1.started,sound_1.stopped,text.started,textbox.started,button.started,textbox.text,button.numClicks,button.timesOn,button.timesOff,participant,session,date,expName,psychopyVersion,frameRate,
0.4,1000,exp,0,0,0,10,26.639698500046507,27.60958610009402,27.60958610009402,27.642790700076148,space,0.5392083001788706,28.57552751000039,28.88256120006554,28.88256120006554,28.88256120006554,28.88256120006554,400,1,[3.3309612998273224],[3.3309747998137027],670502,001,2022-11-04_15h22.52.666,untitled,2022.2.2,60.02058712031989,
0.1,1000,exp,0,1,1,9,32.20398720004596,33.20848580007441,33.20848580007441,33.20848580007441,space,3.36875530006364,36.7074135100469,,37.00789760006592,37.00789760006592,37.00789760006592,"200
",2,"[3.3309612998273224, 4.631848699878901]","[3.3309747998137027, 4.631852000020444]",670502,001,2022-11-04_15h22.52.666,untitled,2022.2.2,60.02058712031989,
0.1,1000,exp,0,2,2,6,41.639643399976194,42.64000270003453,42.64000270003453,42.64000270003453,space,1.886542099993676,44.65563740986399,,44.95888020005077,44.95888020005077,44.95888020005077,150,3,"[3.3309612998273224, 4.631848699878901, 2.0869653997942805]","[3.3309747998137027, 4.631852000020444, 2.086968099931255]",670502,001,2022-11-04_15h22.52.666,untitled,2022.2.2,60.02058712031989,
0.4,400,unexp,0,3,3,1,47.0330620999448,48.039209600072354,48.039209600072354,48.039209600072354,space,1.0574296000413597,49.521953109977765,,49.82189609995112,49.82189609995112,49.82189609995112,"600
",4,"[3.3309612998273224, 4.631848699878901, 2.0869653997942805, 2.801935800118372]","[3.3309747998137027, 4.631852000020444, 2.086968099931255, 2.8019467000849545]",670502,001,2022-11-04_15h22.52.666,untitled,2022.2.2,60.02058712031989,
0.7,1000,exp,0,4,4,5,52.62083779997192,53.621040999889374,53.621040999889374,53.621040999889374,space,2.1327864001505077,56.470496310014276,,56.77067200001329,56.77067200001329,56.77067200001329,450,5,"[3.3309612998273224, 4.631848699878901, 2.0869653997942805, 2.801935800118372, 11.952212899923325]","[3.3309747998137027, 4.631852000020444, 2.086968099931255, 2.8019467000849545, 11.952224700013176]",670502,001,2022-11-04_15h22.52.666,untitled,2022.2.2,60.02058712031989,
0.7,1000,exp,0,5,5,11,68.71579860011116,69.71754950005561,69.71754950005561,69.71754950005561,space,0.576211899984628,71.0175035100896,,71.31774939992465,71.31774939992465,71.31774939992465,590,6,"[3.3309612998273224, 4.631848699878901, 2.0869653997942805, 2.801935800118372, 11.952212899923325, 5.5300185000523925]","[3.3309747998137027, 4.631852000020444, 2.086968099931255, 2.8019467000849545, 11.952224700013176, 5.5300247999839485]",670502,001,2022-11-04_15h22.52.666,untitled,2022.2.2,60.02058712031989,
0.7,1000,exp,0,6,6,8,76.8495791000314,77.84981840010732,77.84981840010732,77.84981840010732,space,0.41408450016751885,78.98267280994915,,79.28702920000069,79.28702920000069,79.28702920000069,"900
",7,"[3.3309612998273224, 4.631848699878901, 2.0869653997942805, 2.801935800118372, 11.952212899923325, 5.5300185000523925, 5.123816299950704]","[3.3309747998137027, 4.631852000020444, 2.086968099931255, 2.8019467000849545, 11.952224700013176, 5.5300247999839485, 5.123825999908149]",670502,001,2022-11-04_15h22.52.666,untitled,2022.2.2,60.02058712031989,
0.1,400,unexp,0,7,7,0,84.40444070007652,85.3979440999683,85.3979440999683,85.41460609994829,space,3.9226739001460373,89.44705071006902,,89.74741770001128,89.74741770001128,89.74741770001128,"390
",8,"[3.3309612998273224, 4.631848699878901, 2.0869653997942805, 2.801935800118372, 11.952212899923325, 5.5300185000523925, 5.123816299950704, 2.311259899986908]","[3.3309747998137027, 4.631852000020444, 2.086968099931255, 2.8019467000849545, 11.952224700013176, 5.5300247999839485, 5.123825999908149, 2.3112669000402093]",670502,001,2022-11-04_15h22.52.666,untitled,2022.2.2,60.02058712031989,
0.4,1000,exp,0,8,8,4,92.06334410002455,93.06329270009883,93.06329270009883,93.06329270009883,space,0.5831726999022067,94.06295041004196,94.36314600007609,94.36314600007609,94.36314600007609,94.36314600007609,469,9,"[3.3309612998273224, 4.631848699878901, 2.0869653997942805, 2.801935800118372, 11.952212899923325, 5.5300185000523925, 5.123816299950704, 2.311259899986908, 4.2535249998327345]","[3.3309747998137027, 4.631852000020444, 2.086968099931255, 2.8019467000849545, 11.952224700013176, 5.5300247999839485, 5.123825999908149, 2.3112669000402093, 4.253537899814546]",670502,001,2022-11-04_15h22.52.666,untitled,2022.2.2,60.02058712031989,
0.1,1000,exp,0,9,9,3,98.6137502999045,99.6116174000781,99.6116174000781,99.62847579992376,space,3.795775200240314,103.52775830994361,103.82819820009172,103.82819820009172,103.82819820009172,103.82819820009172,200,10,"[3.3309612998273224, 4.631848699878901, 2.0869653997942805, 2.801935800118372, 11.952212899923325, 5.5300185000523925, 5.123816299950704, 2.311259899986908, 4.2535249998327345, 2.8420034998562187]","[3.3309747998137027, 4.631852000020444, 2.086968099931255, 2.8019467000849545, 11.952224700013176, 5.5300247999839485, 5.123825999908149, 2.3112669000402093, 4.253537899814546, 2.8420155998319387]",670502,001,2022-11-04_15h22.52.666,untitled,2022.2.2,60.02058712031989,
0.4,1000,exp,0,10,10,7,106.66695569991134,107.66044949996285,107.66044949996285,107.6770305999089,space,3.4633925000671297,111.54304530993105,,111.842973300023,111.842973300023,111.842973300023,500,11,"[3.3309612998273224, 4.631848699878901, 2.0869653997942805, 2.801935800118372, 11.952212899923325, 5.5300185000523925, 5.123816299950704, 2.311259899986908, 4.2535249998327345, 2.8420034998562187, 2.800177700119093]","[3.3309747998137027, 4.631852000020444, 2.086968099931255, 2.8019467000849545, 11.952224700013176, 5.5300247999839485, 5.123825999908149, 2.3112669000402093, 4.253537899814546, 2.8420155998319387, 2.80018649995327]",670502,001,2022-11-04_15h22.52.666,untitled,2022.2.2,60.02058712031989,
0.7,400,unexp,0,11,11,2,114.64204340009019,115.6423339000903,115.6423339000903,115.6423339000903,space,0.7045032999012619,117.0748680099845,117.37541850004345,117.37541850004345,117.37541850004345,117.37541850004345,466,12,"[3.3309612998273224, 4.631848699878901, 2.0869653997942805, 2.801935800118372, 11.952212899923325, 5.5300185000523925, 5.123816299950704, 2.311259899986908, 4.2535249998327345, 2.8420034998562187, 2.800177700119093, 3.1584111999254674]","[3.3309747998137027, 4.631852000020444, 2.086968099931255, 2.8019467000849545, 11.952224700013176, 5.5300247999839485, 5.123825999908149, 2.3112669000402093, 4.253537899814546, 2.8420155998319387, 2.80018649995327, 3.15842380002141]",670502,001,2022-11-04_15h22.52.666,untitled,2022.2.2,60.02058712031989,
0.4,1000,exp,1,0,12,10,120.52730230009183,121.52428860007785,121.52428860007785,121.54088329989463,space,0.8851181003265083,122.84077330990695,123.14102709991857,123.14102709991857,123.14102709991857,123.14102709991857,600,13,"[3.3309612998273224, 4.631848699878901, 2.0869653997942805, 2.801935800118372, 11.952212899923325, 5.5300185000523925, 5.123816299950704, 2.311259899986908, 4.2535249998327345, 2.8420034998562187, 2.800177700119093, 3.1584111999254674, 2.1489011000376195]","[3.3309747998137027, 4.631852000020444, 2.086968099931255, 2.8019467000849545, 11.952224700013176, 5.5300247999839485, 5.123825999908149, 2.3112669000402093, 4.253537899814546, 2.8420155998319387, 2.80018649995327, 3.15842380002141, 2.148905700072646]",670502,001,2022-11-04_15h22.52.666,untitled,2022.2.2,60.02058712031989,
0.1,1000,exp,1,1,13,3,125.29012649995275,126.29031529999338,126.29031529999338,126.29031529999338,space,0.8134519001469016,127.2230274100788,,127.52356999996118,127.52356999996118,127.52356999996118,567,14,"[3.3309612998273224, 4.631848699878901, 2.0869653997942805, 2.801935800118372, 11.952212899923325, 5.5300185000523925, 5.123816299950704, 2.311259899986908, 4.2535249998327345, 2.8420034998562187, 2.800177700119093, 3.1584111999254674, 2.1489011000376195, 6.398924299981445]","[3.3309747998137027, 4.631852000020444, 2.086968099931255, 2.8019467000849545, 11.952224700013176, 5.5300247999839485, 5.123825999908149, 2.3112669000402093, 4.253537899814546, 2.8420155998319387, 2.80018649995327, 3.15842380002141, 2.148905700072646, 6.398934199940413]",670502,001,2022-11-04_15h22.52.666,untitled,2022.2.2,60.02058712031989,
0.7,1000,exp,1,2,14,11,133.9218727000989,134.92201570002362,134.92201570002362,134.92201570002362,space,1.715293100103736,137.3541832099203,,137.65461419988424,137.65461419988424,137.65461419988424,700,15,"[3.3309612998273224, 4.631848699878901, 2.0869653997942805, 2.801935800118372, 11.952212899923325, 5.5300185000523925, 5.123816299950704, 2.311259899986908, 4.2535249998327345, 2.8420034998562187, 2.800177700119093, 3.1584111999254674, 2.1489011000376195, 6.398924299981445, 2.3335402000229806]","[3.3309747998137027, 4.631852000020444, 2.086968099931255, 2.8019467000849545, 11.952224700013176, 5.5300247999839485, 5.123825999908149, 2.3112669000402093, 4.253537899814546, 2.8420155998319387, 2.80018649995327, 3.15842380002141, 2.148905700072646, 6.398934199940413, 2.3335470999591053]",670502,001,2022-11-04_15h22.52.666,untitled,2022.2.2,60.02058712031989,
0.4,400,unexp,1,3,15,1,139.98717930004932,140.9867849999573,140.9867849999573,140.9867849999573,space,1.4999325000680983,142.90313030998223,,143.2226495000068,143.2226495000068,143.2226495000068,400,16,"[3.3309612998273224, 4.631848699878901, 2.0869653997942805, 2.801935800118372, 11.952212899923325, 5.5300185000523925, 5.123816299950704, 2.311259899986908, 4.2535249998327345, 2.8420034998562187, 2.800177700119093, 3.1584111999254674, 2.1489011000376195, 6.398924299981445, 2.3335402000229806, 5.219970700098202]","[3.3309747998137027, 4.631852000020444, 2.086968099931255, 2.8019467000849545, 11.952224700013176, 5.5300247999839485, 5.123825999908149, 2.3112669000402093, 4.253537899814546, 2.8420155998319387, 2.80018649995327, 3.15842380002141, 2.148905700072646, 6.398934199940413, 2.3335470999591053, 5.219978800043464]",670502,001,2022-11-04_15h22.52.666,untitled,2022.2.2,60.02058712031989,
0.4,1000,exp,1,4,16,4,148.42333590006456,149.41871530003846,149.41871530003846,149.4352937999647,space,0.342632400104776,150.18499270998873,150.50381999998353,150.50381999998353,150.50381999998353,150.50381999998353,600,17,"[3.3309612998273224, 4.631848699878901, 2.0869653997942805, 2.801935800118372, 11.952212899923325, 5.5300185000523925, 5.123816299950704, 2.311259899986908, 4.2535249998327345, 2.8420034998562187, 2.800177700119093, 3.1584111999254674, 2.1489011000376195, 6.398924299981445, 2.3335402000229806, 5.219970700098202, 3.73915549996309]","[3.3309747998137027, 4.631852000020444, 2.086968099931255, 2.8019467000849545, 11.952224700013176, 5.5300247999839485, 5.123825999908149, 2.3112669000402093, 4.253537899814546, 2.8420155998319387, 2.80018649995327, 3.15842380002141, 2.148905700072646, 6.398934199940413, 2.3335470999591053, 5.219978800043464, 3.7391639000270516]",670502,001,2022-11-04_15h22.52.666,untitled,2022.2.2,60.02058712031989,
0.7,1000,exp,1,5,17,5,154.22170020011254,155.217534000054,155.217534000054,155.23432140005752,space,0.9159425001125783,156.85047281007283,,157.1509372999426,157.1509372999426,157.1509372999426,400,18,"[3.3309612998273224, 4.631848699878901, 2.0869653997942805, 2.801935800118372, 11.952212899923325, 5.5300185000523925, 5.123816299950704, 2.311259899986908, 4.2535249998327345, 2.8420034998562187, 2.800177700119093, 3.1584111999254674, 2.1489011000376195, 6.398924299981445, 2.3335402000229806, 5.219970700098202, 3.73915549996309, 3.0002062001731247]","[3.3309747998137027, 4.631852000020444, 2.086968099931255, 2.8019467000849545, 11.952224700013176, 5.5300247999839485, 5.123825999908149, 2.3112669000402093, 4.253537899814546, 2.8420155998319387, 2.80018649995327, 3.15842380002141, 2.148905700072646, 6.398934199940413, 2.3335470999591053, 5.219978800043464, 3.7391639000270516, 3.0002127999905497]",670502,001,2022-11-04_15h22.52.666,untitled,2022.2.2,60.02058712031989,
0.7,400,unexp,1,6,18,2,160.1499926999677,161.15004840004258,161.15004840004258,161.15004840004258,space,0.7458552001044154,162.5995997100603,,162.89968080003746,162.89968080003746,162.89968080003746,700,19,"[3.3309612998273224, 4.631848699878901, 2.0869653997942805, 2.801935800118372, 11.952212899923325, 5.5300185000523925, 5.123816299950704, 2.311259899986908, 4.2535249998327345, 2.8420034998562187, 2.800177700119093, 3.1584111999254674, 2.1489011000376195, 6.398924299981445, 2.3335402000229806, 5.219970700098202, 3.73915549996309, 3.0002062001731247, 1.8662810998503119]","[3.3309747998137027, 4.631852000020444, 2.086968099931255, 2.8019467000849545, 11.952224700013176, 5.5300247999839485, 5.123825999908149, 2.3112669000402093, 4.253537899814546, 2.8420155998319387, 2.80018649995327, 3.15842380002141, 2.148905700072646, 6.398934199940413, 2.3335470999591053, 5.219978800043464, 3.7391639000270516, 3.0002127999905497, 1.8662874998990446]",670502,001,2022-11-04_15h22.52.666,untitled,2022.2.2,60.02058712031989,
0.1,1000,exp,1,7,19,9,164.76563960011117,165.76572840008885,165.76572840008885,165.76572840008885,space,0.7975836000405252,166.68198421001435,,166.98790859989822,166.98790859989822,166.98790859989822,800,20,"[3.3309612998273224, 4.631848699878901, 2.0869653997942805, 2.801935800118372, 11.952212899923325, 5.5300185000523925, 5.123816299950704, 2.311259899986908, 4.2535249998327345, 2.8420034998562187, 2.800177700119093, 3.1584111999254674, 2.1489011000376195, 6.398924299981445, 2.3335402000229806, 5.219970700098202, 3.73915549996309, 3.0002062001731247, 1.8662810998503119, 2.298795700073242]","[3.3309747998137027, 4.631852000020444, 2.086968099931255, 2.8019467000849545, 11.952224700013176, 5.5300247999839485, 5.123825999908149, 2.3112669000402093, 4.253537899814546, 2.8420155998319387, 2.80018649995327, 3.15842380002141, 2.148905700072646, 6.398934199940413, 2.3335470999591053, 5.219978800043464, 3.7391639000270516, 3.0002127999905497, 1.8662874998990446, 2.2988027001265436]",670502,001,2022-11-04_15h22.52.666,untitled,2022.2.2,60.02058712031989,
0.1,1000,exp,1,8,20,6,169.28132650000043,170.28133610007353,170.28133610007353,170.28133610007353,space,0.5850012002047151,170.99796990989708,,171.29790299991146,171.29790299991146,171.29790299991146,800,21,"[3.3309612998273224, 4.631848699878901, 2.0869653997942805, 2.801935800118372, 11.952212899923325, 5.5300185000523925, 5.123816299950704, 2.311259899986908, 4.2535249998327345, 2.8420034998562187, 2.800177700119093, 3.1584111999254674, 2.1489011000376195, 6.398924299981445, 2.3335402000229806, 5.219970700098202, 3.73915549996309, 3.0002062001731247, 1.8662810998503119, 2.298795700073242, 1.7444667997770011]","[3.3309747998137027, 4.631852000020444, 2.086968099931255, 2.8019467000849545, 11.952224700013176, 5.5300247999839485, 5.123825999908149, 2.3112669000402093, 4.253537899814546, 2.8420155998319387, 2.80018649995327, 3.15842380002141, 2.148905700072646, 6.398934199940413, 2.3335470999591053, 5.219978800043464, 3.7391639000270516, 3.0002127999905497, 1.8662874998990446, 2.2988027001265436, 1.7444741998333484]",670502,001,2022-11-04_15h22.52.666,untitled,2022.2.2,60.02058712031989,
0.1,400,unexp,1,9,21,0,173.0357876000926,174.0308028999716,174.0308028999716,174.04754290007986,space,0.519619100028649,174.6804702098947,174.98057239991613,174.98057239991613,174.98057239991613,174.98057239991613,900,22,"[3.3309612998273224, 4.631848699878901, 2.0869653997942805, 2.801935800118372, 11.952212899923325, 5.5300185000523925, 5.123816299950704, 2.311259899986908, 4.2535249998327345, 2.8420034998562187, 2.800177700119093, 3.1584111999254674, 2.1489011000376195, 6.398924299981445, 2.3335402000229806, 5.219970700098202, 3.73915549996309, 3.0002062001731247, 1.8662810998503119, 2.298795700073242, 1.7444667997770011, 2.3927494999952614]","[3.3309747998137027, 4.631852000020444, 2.086968099931255, 2.8019467000849545, 11.952224700013176, 5.5300247999839485, 5.123825999908149, 2.3112669000402093, 4.253537899814546, 2.8420155998319387, 2.80018649995327, 3.15842380002141, 2.148905700072646, 6.398934199940413, 2.3335470999591053, 5.219978800043464, 3.7391639000270516, 3.0002127999905497, 1.8662874998990446, 2.2988027001265436, 1.7444741998333484, 2.3927678000181913]",670502,001,2022-11-04_15h22.52.666,untitled,2022.2.2,60.02058712031989,
0.7,1000,exp,1,10,22,8,177.3694247000385,178.36342899990268,178.36342899990268,178.38006630004384,space,0.475721700116992,179.56302130999975,,179.86317729996517,179.86317729996517,179.86317729996517,300,23,"[3.3309612998273224, 4.631848699878901, 2.0869653997942805, 2.801935800118372, 11.952212899923325, 5.5300185000523925, 5.123816299950704, 2.311259899986908, 4.2535249998327345, 2.8420034998562187, 2.800177700119093, 3.1584111999254674, 2.1489011000376195, 6.398924299981445, 2.3335402000229806, 5.219970700098202, 3.73915549996309, 3.0002062001731247, 1.8662810998503119, 2.298795700073242, 1.7444667997770011, 2.3927494999952614, 1.4669447999913245]","[3.3309747998137027, 4.631852000020444, 2.086968099931255, 2.8019467000849545, 11.952224700013176, 5.5300247999839485, 5.123825999908149, 2.3112669000402093, 4.253537899814546, 2.8420155998319387, 2.80018649995327, 3.15842380002141, 2.148905700072646, 6.398934199940413, 2.3335470999591053, 5.219978800043464, 3.7391639000270516, 3.0002127999905497, 1.8662874998990446, 2.2988027001265436, 1.7444741998333484, 2.3927678000181913, 1.4669514000415802]",670502,001,2022-11-04_15h22.52.666,untitled,2022.2.2,60.02058712031989,
0.4,1000,exp,1,11,23,7,181.32920369994827,182.32891779998317,182.32891779998317,182.32891779998317,space,0.8025557999499142,183.54556191000157,183.85852480004542,183.85852480004542,183.85852480004542,183.85852480004542,788,24,"[3.3309612998273224, 4.631848699878901, 2.0869653997942805, 2.801935800118372, 11.952212899923325, 5.5300185000523925, 5.123816299950704, 2.311259899986908, 4.2535249998327345, 2.8420034998562187, 2.800177700119093, 3.1584111999254674, 2.1489011000376195, 6.398924299981445, 2.3335402000229806, 5.219970700098202, 3.73915549996309, 3.0002062001731247, 1.8662810998503119, 2.298795700073242, 1.7444667997770011, 2.3927494999952614, 1.4669447999913245, 1.713814000133425]","[3.3309747998137027, 4.631852000020444, 2.086968099931255, 2.8019467000849545, 11.952224700013176, 5.5300247999839485, 5.123825999908149, 2.3112669000402093, 4.253537899814546, 2.8420155998319387, 2.80018649995327, 3.15842380002141, 2.148905700072646, 6.398934199940413, 2.3335470999591053, 5.219978800043464, 3.7391639000270516, 3.0002127999905497, 1.8662874998990446, 2.2988027001265436, 1.7444741998333484, 2.3927678000181913, 1.4669514000415802, 1.7138203999493271]",670502,001,2022-11-04_15h22.52.666,untitled,2022.2.2,60.02058712031989,
0.1,400,unexp,2,0,24,0,185.5616339999251,186.56144599989057,186.56144599989057,186.56144599989057,space,0.3801810001023114,187.04482820988633,,187.34500960004516,187.34500960004516,187.34500960004516,899,25,"[3.3309612998273224, 4.631848699878901, 2.0869653997942805, 2.801935800118372, 11.952212899923325, 5.5300185000523925, 5.123816299950704, 2.311259899986908, 4.2535249998327345, 2.8420034998562187, 2.800177700119093, 3.1584111999254674, 2.1489011000376195, 6.398924299981445, 2.3335402000229806, 5.219970700098202, 3.73915549996309, 3.0002062001731247, 1.8662810998503119, 2.298795700073242, 1.7444667997770011, 2.3927494999952614, 1.4669447999913245, 1.713814000133425, 2.8161700000055134]","[3.3309747998137027, 4.631852000020444, 2.086968099931255, 2.8019467000849545, 11.952224700013176, 5.5300247999839485, 5.123825999908149, 2.3112669000402093, 4.253537899814546, 2.8420155998319387, 2.80018649995327, 3.15842380002141, 2.148905700072646, 6.398934199940413, 2.3335470999591053, 5.219978800043464, 3.7391639000270516, 3.0002127999905497, 1.8662874998990446, 2.2988027001265436, 1.7444741998333484, 2.3927678000181913, 1.4669514000415802, 1.7138203999493271, 2.8161778999492526]",670502,001,2022-11-04_15h22.52.666,untitled,2022.2.2,60.02058712031989,
0.4,1000,exp,2,1,25,10,190.16072040004656,191.16053600003943,191.16053600003943,191.16053600003943,space,0.32867410010658205,191.91066151005217,,192.21074160002172,192.21074160002172,192.21074160002172,900,26,"[3.3309612998273224, 4.631848699878901, 2.0869653997942805, 2.801935800118372, 11.952212899923325, 5.5300185000523925, 5.123816299950704, 2.311259899986908, 4.2535249998327345, 2.8420034998562187, 2.800177700119093, 3.1584111999254674, 2.1489011000376195, 6.398924299981445, 2.3335402000229806, 5.219970700098202, 3.73915549996309, 3.0002062001731247, 1.8662810998503119, 2.298795700073242, 1.7444667997770011, 2.3927494999952614, 1.4669447999913245, 1.713814000133425, 2.8161700000055134, 1.4242588998749852]","[3.3309747998137027, 4.631852000020444, 2.086968099931255, 2.8019467000849545, 11.952224700013176, 5.5300247999839485, 5.123825999908149, 2.3112669000402093, 4.253537899814546, 2.8420155998319387, 2.80018649995327, 3.15842380002141, 2.148905700072646, 6.398934199940413, 2.3335470999591053, 5.219978800043464, 3.7391639000270516, 3.0002127999905497, 1.8662874998990446, 2.2988027001265436, 1.7444741998333484, 2.3927678000181913, 1.4669514000415802, 1.7138203999493271, 2.8161778999492526, 1.4242686999496073]",670502,001,2022-11-04_15h22.52.666,untitled,2022.2.2,60.02058712031989,
0.1,1000,exp,2,2,26,6,193.62932469998486,194.6268164999783,194.6268164999783,194.64378780010156,space,0.48997370013967156,195.24282191004605,,195.5585062999744,195.5585062999744,195.5585062999744,355,27,"[3.3309612998273224, 4.631848699878901, 2.0869653997942805, 2.801935800118372, 11.952212899923325, 5.5300185000523925, 5.123816299950704, 2.311259899986908, 4.2535249998327345, 2.8420034998562187, 2.800177700119093, 3.1584111999254674, 2.1489011000376195, 6.398924299981445, 2.3335402000229806, 5.219970700098202, 3.73915549996309, 3.0002062001731247, 1.8662810998503119, 2.298795700073242, 1.7444667997770011, 2.3927494999952614, 1.4669447999913245, 1.713814000133425, 2.8161700000055134, 1.4242588998749852, 1.6129151000641286]","[3.3309747998137027, 4.631852000020444, 2.086968099931255, 2.8019467000849545, 11.952224700013176, 5.5300247999839485, 5.123825999908149, 2.3112669000402093, 4.253537899814546, 2.8420155998319387, 2.80018649995327, 3.15842380002141, 2.148905700072646, 6.398934199940413, 2.3335470999591053, 5.219978800043464, 3.7391639000270516, 3.0002127999905497, 1.8662874998990446, 2.2988027001265436, 1.7444741998333484, 2.3927678000181913, 1.4669514000415802, 1.7138203999493271, 2.8161778999492526, 1.4242686999496073, 1.6129233001265675]",670502,001,2022-11-04_15h22.52.666,untitled,2022.2.2,60.02058712031989,
0.1,1000,exp,2,3,27,9,197.1504124000203,198.15911699994467,198.15911699994467,198.15911699994467,space,0.3774970001541078,198.65906980992295,,198.95979260001332,198.95979260001332,198.95979260001332,675,28,"[3.3309612998273224, 4.631848699878901, 2.0869653997942805, 2.801935800118372, 11.952212899923325, 5.5300185000523925, 5.123816299950704, 2.311259899986908, 4.2535249998327345, 2.8420034998562187, 2.800177700119093, 3.1584111999254674, 2.1489011000376195, 6.398924299981445, 2.3335402000229806, 5.219970700098202, 3.73915549996309, 3.0002062001731247, 1.8662810998503119, 2.298795700073242, 1.7444667997770011, 2.3927494999952614, 1.4669447999913245, 1.713814000133425, 2.8161700000055134, 1.4242588998749852, 1.6129151000641286, 3.8506360000465065]","[3.3309747998137027, 4.631852000020444, 2.086968099931255, 2.8019467000849545, 11.952224700013176, 5.5300247999839485, 5.123825999908149, 2.3112669000402093, 4.253537899814546, 2.8420155998319387, 2.80018649995327, 3.15842380002141, 2.148905700072646, 6.398934199940413, 2.3335470999591053, 5.219978800043464, 3.7391639000270516, 3.0002127999905497, 1.8662874998990446, 2.2988027001265436, 1.7444741998333484, 2.3927678000181913, 1.4669514000415802, 1.7138203999493271, 2.8161778999492526, 1.4242686999496073, 1.6129233001265675, 3.8506467000115663]",670502,001,2022-11-04_15h22.52.666,untitled,2022.2.2,60.02058712031989,
0.4,400,unexp,2,4,28,1,202.8061981999781,203.80831100000069,203.80831100000069,203.80831100000069,space,0.789233700139448,205.00771080991254,205.30793719994836,205.30793719994836,205.30793719994836,205.30793719994836,879,29,"[3.3309612998273224, 4.631848699878901, 2.0869653997942805, 2.801935800118372, 11.952212899923325, 5.5300185000523925, 5.123816299950704, 2.311259899986908, 4.2535249998327345, 2.8420034998562187, 2.800177700119093, 3.1584111999254674, 2.1489011000376195, 6.398924299981445, 2.3335402000229806, 5.219970700098202, 3.73915549996309, 3.0002062001731247, 1.8662810998503119, 2.298795700073242, 1.7444667997770011, 2.3927494999952614, 1.4669447999913245, 1.713814000133425, 2.8161700000055134, 1.4242588998749852, 1.6129151000641286, 3.8506360000465065, 1.8916502001229674]","[3.3309747998137027, 4.631852000020444, 2.086968099931255, 2.8019467000849545, 11.952224700013176, 5.5300247999839485, 5.123825999908149, 2.3112669000402093, 4.253537899814546, 2.8420155998319387, 2.80018649995327, 3.15842380002141, 2.148905700072646, 6.398934199940413, 2.3335470999591053, 5.219978800043464, 3.7391639000270516, 3.0002127999905497, 1.8662874998990446, 2.2988027001265436, 1.7444741998333484, 2.3927678000181913, 1.4669514000415802, 1.7138203999493271, 2.8161778999492526, 1.4242686999496073, 1.6129233001265675, 3.8506467000115663, 1.8916583000682294]",670502,001,2022-11-04_15h22.52.666,untitled,2022.2.2,60.02058712031989,
0.7,1000,exp,2,5,29,5,207.19358359999023,208.1906677999068,208.1906677999068,208.20713309990242,space,0.5466056002769619,209.4567881099414,,209.75713160005398,209.75713160005398,209.75713160005398,956,30,"[3.3309612998273224, 4.631848699878901, 2.0869653997942805, 2.801935800118372, 11.952212899923325, 5.5300185000523925, 5.123816299950704, 2.311259899986908, 4.2535249998327345, 2.8420034998562187, 2.800177700119093, 3.1584111999254674, 2.1489011000376195, 6.398924299981445, 2.3335402000229806, 5.219970700098202, 3.73915549996309, 3.0002062001731247, 1.8662810998503119, 2.298795700073242, 1.7444667997770011, 2.3927494999952614, 1.4669447999913245, 1.713814000133425, 2.8161700000055134, 1.4242588998749852, 1.6129151000641286, 3.8506360000465065, 1.8916502001229674, 1.9333065999671817]","[3.3309747998137027, 4.631852000020444, 2.086968099931255, 2.8019467000849545, 11.952224700013176, 5.5300247999839485, 5.123825999908149, 2.3112669000402093, 4.253537899814546, 2.8420155998319387, 2.80018649995327, 3.15842380002141, 2.148905700072646, 6.398934199940413, 2.3335470999591053, 5.219978800043464, 3.7391639000270516, 3.0002127999905497, 1.8662874998990446, 2.2988027001265436, 1.7444741998333484, 2.3927678000181913, 1.4669514000415802, 1.7138203999493271, 2.8161778999492526, 1.4242686999496073, 1.6129233001265675, 3.8506467000115663, 1.8916583000682294, 1.9333132999017835]",670502,001,2022-11-04_15h22.52.666,untitled,2022.2.2,60.02058712031989,
0.7,400,unexp,2,6,30,2,211.689693500055,212.68963810009882,212.68963810009882,212.68963810009882,space,2.3152221001219004,215.72219070987776,216.0230405998882,216.0230405998882,216.0230405998882,216.0230405998882,894,31,"[3.3309612998273224, 4.631848699878901, 2.0869653997942805, 2.801935800118372, 11.952212899923325, 5.5300185000523925, 5.123816299950704, 2.311259899986908, 4.2535249998327345, 2.8420034998562187, 2.800177700119093, 3.1584111999254674, 2.1489011000376195, 6.398924299981445, 2.3335402000229806, 5.219970700098202, 3.73915549996309, 3.0002062001731247, 1.8662810998503119, 2.298795700073242, 1.7444667997770011, 2.3927494999952614, 1.4669447999913245, 1.713814000133425, 2.8161700000055134, 1.4242588998749852, 1.6129151000641286, 3.8506360000465065, 1.8916502001229674, 1.9333065999671817, 3.5223394001368433]","[3.3309747998137027, 4.631852000020444, 2.086968099931255, 2.8019467000849545, 11.952224700013176, 5.5300247999839485, 5.123825999908149, 2.3112669000402093, 4.253537899814546, 2.8420155998319387, 2.80018649995327, 3.15842380002141, 2.148905700072646, 6.398934199940413, 2.3335470999591053, 5.219978800043464, 3.7391639000270516, 3.0002127999905497, 1.8662874998990446, 2.2988027001265436, 1.7444741998333484, 2.3927678000181913, 1.4669514000415802, 1.7138203999493271, 2.8161778999492526, 1.4242686999496073, 1.6129233001265675, 3.8506467000115663, 1.8916583000682294, 1.9333132999017835, 3.522350599989295]",670502,001,2022-11-04_15h22.52.666,untitled,2022.2.2,60.02058712031989,
0.7,1000,exp,2,7,31,11,219.54484149999917,220.53829580009915,220.53829580009915,220.55494579998776,space,1.3074260000139475,222.57075590998866,222.8713952000253,222.8713952000253,222.8713952000253,222.8713952000253,345,32,"[3.3309612998273224, 4.631848699878901, 2.0869653997942805, 2.801935800118372, 11.952212899923325, 5.5300185000523925, 5.123816299950704, 2.311259899986908, 4.2535249998327345, 2.8420034998562187, 2.800177700119093, 3.1584111999254674, 2.1489011000376195, 6.398924299981445, 2.3335402000229806, 5.219970700098202, 3.73915549996309, 3.0002062001731247, 1.8662810998503119, 2.298795700073242, 1.7444667997770011, 2.3927494999952614, 1.4669447999913245, 1.713814000133425, 2.8161700000055134, 1.4242588998749852, 1.6129151000641286, 3.8506360000465065, 1.8916502001229674, 1.9333065999671817, 3.5223394001368433, 3.5999215999618173]","[3.3309747998137027, 4.631852000020444, 2.086968099931255, 2.8019467000849545, 11.952224700013176, 5.5300247999839485, 5.123825999908149, 2.3112669000402093, 4.253537899814546, 2.8420155998319387, 2.80018649995327, 3.15842380002141, 2.148905700072646, 6.398934199940413, 2.3335470999591053, 5.219978800043464, 3.7391639000270516, 3.0002127999905497, 1.8662874998990446, 2.2988027001265436, 1.7444741998333484, 2.3927678000181913, 1.4669514000415802, 1.7138203999493271, 2.8161778999492526, 1.4242686999496073, 1.6129233001265675, 3.8506467000115663, 1.8916583000682294, 1.9333132999017835, 3.522350599989295, 3.599928200012073]",670502,001,2022-11-04_15h22.52.666,untitled,2022.2.2,60.02058712031989,
0.4,1000,exp,2,8,32,7,226.4702514000237,227.47039839997888,227.47039839997888,227.47039839997888,space,0.9501604000106454,228.8363966099918,229.13783779996447,229.13783779996447,229.13783779996447,229.13783779996447,"678
",33,"[3.3309612998273224, 4.631848699878901, 2.0869653997942805, 2.801935800118372, 11.952212899923325, 5.5300185000523925, 5.123816299950704, 2.311259899986908, 4.2535249998327345, 2.8420034998562187, 2.800177700119093, 3.1584111999254674, 2.1489011000376195, 6.398924299981445, 2.3335402000229806, 5.219970700098202, 3.73915549996309, 3.0002062001731247, 1.8662810998503119, 2.298795700073242, 1.7444667997770011, 2.3927494999952614, 1.4669447999913245, 1.713814000133425, 2.8161700000055134, 1.4242588998749852, 1.6129151000641286, 3.8506360000465065, 1.8916502001229674, 1.9333065999671817, 3.5223394001368433, 3.5999215999618173, 6.7099870999809355]","[3.3309747998137027, 4.631852000020444, 2.086968099931255, 2.8019467000849545, 11.952224700013176, 5.5300247999839485, 5.123825999908149, 2.3112669000402093, 4.253537899814546, 2.8420155998319387, 2.80018649995327, 3.15842380002141, 2.148905700072646, 6.398934199940413, 2.3335470999591053, 5.219978800043464, 3.7391639000270516, 3.0002127999905497, 1.8662874998990446, 2.2988027001265436, 1.7444741998333484, 2.3927678000181913, 1.4669514000415802, 1.7138203999493271, 2.8161778999492526, 1.4242686999496073, 1.6129233001265675, 3.8506467000115663, 1.8916583000682294, 1.9333132999017835, 3.522350599989295, 3.599928200012073, 6.709998999955133]",670502,001,2022-11-04_15h22.52.666,untitled,2022.2.2,60.02058712031989,
0.1,1000,exp,2,9,33,3,235.84278589999303,236.83516100002453,236.83516100002453,236.85184379993007,space,0.6184581001289189,237.58485620990396,,237.88509509991854,237.88509509991854,237.88509509991854,899,34,"[3.3309612998273224, 4.631848699878901, 2.0869653997942805, 2.801935800118372, 11.952212899923325, 5.5300185000523925, 5.123816299950704, 2.311259899986908, 4.2535249998327345, 2.8420034998562187, 2.800177700119093, 3.1584111999254674, 2.1489011000376195, 6.398924299981445, 2.3335402000229806, 5.219970700098202, 3.73915549996309, 3.0002062001731247, 1.8662810998503119, 2.298795700073242, 1.7444667997770011, 2.3927494999952614, 1.4669447999913245, 1.713814000133425, 2.8161700000055134, 1.4242588998749852, 1.6129151000641286, 3.8506360000465065, 1.8916502001229674, 1.9333065999671817, 3.5223394001368433, 3.5999215999618173, 6.7099870999809355, 1.8047766999807209]","[3.3309747998137027, 4.631852000020444, 2.086968099931255, 2.8019467000849545, 11.952224700013176, 5.5300247999839485, 5.123825999908149, 2.3112669000402093, 4.253537899814546, 2.8420155998319387, 2.80018649995327, 3.15842380002141, 2.148905700072646, 6.398934199940413, 2.3335470999591053, 5.219978800043464, 3.7391639000270516, 3.0002127999905497, 1.8662874998990446, 2.2988027001265436, 1.7444741998333484, 2.3927678000181913, 1.4669514000415802, 1.7138203999493271, 2.8161778999492526, 1.4242686999496073, 1.6129233001265675, 3.8506467000115663, 1.8916583000682294, 1.9333132999017835, 3.522350599989295, 3.599928200012073, 6.709998999955133, 1.804784899810329]",670502,001,2022-11-04_15h22.52.666,untitled,2022.2.2,60.02058712031989,
0.7,1000,exp,2,10,34,8,239.6836008001119,240.684013399994,240.684013399994,240.684013399994,space,0.4158763000741601,241.81735141002574,,242.1174884000793,242.1174884000793,242.1174884000793,900,35,"[3.3309612998273224, 4.631848699878901, 2.0869653997942805, 2.801935800118372, 11.952212899923325, 5.5300185000523925, 5.123816299950704, 2.311259899986908, 4.2535249998327345, 2.8420034998562187, 2.800177700119093, 3.1584111999254674, 2.1489011000376195, 6.398924299981445, 2.3335402000229806, 5.219970700098202, 3.73915549996309, 3.0002062001731247, 1.8662810998503119, 2.298795700073242, 1.7444667997770011, 2.3927494999952614, 1.4669447999913245, 1.713814000133425, 2.8161700000055134, 1.4242588998749852, 1.6129151000641286, 3.8506360000465065, 1.8916502001229674, 1.9333065999671817, 3.5223394001368433, 3.5999215999618173, 6.7099870999809355, 1.8047766999807209, 2.200122300069779]","[3.3309747998137027, 4.631852000020444, 2.086968099931255, 2.8019467000849545, 11.952224700013176, 5.5300247999839485, 5.123825999908149, 2.3112669000402093, 4.253537899814546, 2.8420155998319387, 2.80018649995327, 3.15842380002141, 2.148905700072646, 6.398934199940413, 2.3335470999591053, 5.219978800043464, 3.7391639000270516, 3.0002127999905497, 1.8662874998990446, 2.2988027001265436, 1.7444741998333484, 2.3927678000181913, 1.4669514000415802, 1.7138203999493271, 2.8161778999492526, 1.4242686999496073, 1.6129233001265675, 3.8506467000115663, 1.8916583000682294, 1.9333132999017835, 3.522350599989295, 3.599928200012073, 6.709998999955133, 1.804784899810329, 2.200129200005904]",670502,001,2022-11-04_15h22.52.666,untitled,2022.2.2,60.02058712031989,
0.4,1000,exp,2,11,35,4,244.3168130000122,245.31655279989354,245.31655279989354,245.31655279989354,space,0.3382129000965506,246.08310141004623,246.3833147000987,246.3833147000987,246.3833147000987,246.3833147000987,244,36,"[3.3309612998273224, 4.631848699878901, 2.0869653997942805, 2.801935800118372, 11.952212899923325, 5.5300185000523925, 5.123816299950704, 2.311259899986908, 4.2535249998327345, 2.8420034998562187, 2.800177700119093, 3.1584111999254674, 2.1489011000376195, 6.398924299981445, 2.3335402000229806, 5.219970700098202, 3.73915549996309, 3.0002062001731247, 1.8662810998503119, 2.298795700073242, 1.7444667997770011, 2.3927494999952614, 1.4669447999913245, 1.713814000133425, 2.8161700000055134, 1.4242588998749852, 1.6129151000641286, 3.8506360000465065, 1.8916502001229674, 1.9333065999671817, 3.5223394001368433, 3.5999215999618173, 6.7099870999809355, 1.8047766999807209, 2.200122300069779, 1.5492269999813288]","[3.3309747998137027, 4.631852000020444, 2.086968099931255, 2.8019467000849545, 11.952224700013176, 5.5300247999839485, 5.123825999908149, 2.3112669000402093, 4.253537899814546, 2.8420155998319387, 2.80018649995327, 3.15842380002141, 2.148905700072646, 6.398934199940413, 2.3335470999591053, 5.219978800043464, 3.7391639000270516, 3.0002127999905497, 1.8662874998990446, 2.2988027001265436, 1.7444741998333484, 2.3927678000181913, 1.4669514000415802, 1.7138203999493271, 2.8161778999492526, 1.4242686999496073, 1.6129233001265675, 3.8506467000115663, 1.8916583000682294, 1.9333132999017835, 3.522350599989295, 3.599928200012073, 6.709998999955133, 1.804784899810329, 2.200129200005904, 1.549234800040722]",670502,001,2022-11-04_15h22.52.666,untitled,2022.2.2,60.02058712031989,
0.7,1000,exp,3,0,36,5,247.93280890001915,248.93271719990298,248.93271719990298,248.93271719990298,space,0.5017101999837905,250.16531220995822,,250.46578230010346,250.46578230010346,250.46578230010346,566,37,"[3.3309612998273224, 4.631848699878901, 2.0869653997942805, 2.801935800118372, 11.952212899923325, 5.5300185000523925, 5.123816299950704, 2.311259899986908, 4.2535249998327345, 2.8420034998562187, 2.800177700119093, 3.1584111999254674, 2.1489011000376195, 6.398924299981445, 2.3335402000229806, 5.219970700098202, 3.73915549996309, 3.0002062001731247, 1.8662810998503119, 2.298795700073242, 1.7444667997770011, 2.3927494999952614, 1.4669447999913245, 1.713814000133425, 2.8161700000055134, 1.4242588998749852, 1.6129151000641286, 3.8506360000465065, 1.8916502001229674, 1.9333065999671817, 3.5223394001368433, 3.5999215999618173, 6.7099870999809355, 1.8047766999807209, 2.200122300069779, 1.5492269999813288, 2.1001943999435753]","[3.3309747998137027, 4.631852000020444, 2.086968099931255, 2.8019467000849545, 11.952224700013176, 5.5300247999839485, 5.123825999908149, 2.3112669000402093, 4.253537899814546, 2.8420155998319387, 2.80018649995327, 3.15842380002141, 2.148905700072646, 6.398934199940413, 2.3335470999591053, 5.219978800043464, 3.7391639000270516, 3.0002127999905497, 1.8662874998990446, 2.2988027001265436, 1.7444741998333484, 2.3927678000181913, 1.4669514000415802, 1.7138203999493271, 2.8161778999492526, 1.4242686999496073, 1.6129233001265675, 3.8506467000115663, 1.8916583000682294, 1.9333132999017835, 3.522350599989295, 3.599928200012073, 6.709998999955133, 1.804784899810329, 2.200129200005904, 1.549234800040722, 2.1002011001110077]",670502,001,2022-11-04_15h22.52.666,untitled,2022.2.2,60.02058712031989,
0.1,400,unexp,3,1,37,0,252.56520899990574,253.565484700026,253.565484700026,253.565484700026,space,2.78663960006088,256.4812305100262,,256.78586250008084,256.78586250008084,256.78586250008084,877,38,"[3.3309612998273224, 4.631848699878901, 2.0869653997942805, 2.801935800118372, 11.952212899923325, 5.5300185000523925, 5.123816299950704, 2.311259899986908, 4.2535249998327345, 2.8420034998562187, 2.800177700119093, 3.1584111999254674, 2.1489011000376195, 6.398924299981445, 2.3335402000229806, 5.219970700098202, 3.73915549996309, 3.0002062001731247, 1.8662810998503119, 2.298795700073242, 1.7444667997770011, 2.3927494999952614, 1.4669447999913245, 1.713814000133425, 2.8161700000055134, 1.4242588998749852, 1.6129151000641286, 3.8506360000465065, 1.8916502001229674, 1.9333065999671817, 3.5223394001368433, 3.5999215999618173, 6.7099870999809355, 1.8047766999807209, 2.200122300069779, 1.5492269999813288, 2.1001943999435753, 2.7488412000238895]","[3.3309747998137027, 4.631852000020444, 2.086968099931255, 2.8019467000849545, 11.952224700013176, 5.5300247999839485, 5.123825999908149, 2.3112669000402093, 4.253537899814546, 2.8420155998319387, 2.80018649995327, 3.15842380002141, 2.148905700072646, 6.398934199940413, 2.3335470999591053, 5.219978800043464, 3.7391639000270516, 3.0002127999905497, 1.8662874998990446, 2.2988027001265436, 1.7444741998333484, 2.3927678000181913, 1.4669514000415802, 1.7138203999493271, 2.8161778999492526, 1.4242686999496073, 1.6129233001265675, 3.8506467000115663, 1.8916583000682294, 1.9333132999017835, 3.522350599989295, 3.599928200012073, 6.709998999955133, 1.804784899810329, 2.200129200005904, 1.549234800040722, 2.1002011001110077, 2.7488480999600142]",670502,001,2022-11-04_15h22.52.666,untitled,2022.2.2,60.02058712031989,
0.4,1000,exp,3,2,38,10,259.5305282000918,260.53041210002266,260.53041210002266,260.53041210002266,space,1.869944600155577,262.82959440988486,263.13006539992057,263.13006539992057,263.13006539992057,263.13006539992057,899,39,"[3.3309612998273224, 4.631848699878901, 2.0869653997942805, 2.801935800118372, 11.952212899923325, 5.5300185000523925, 5.123816299950704, 2.311259899986908, 4.2535249998327345, 2.8420034998562187, 2.800177700119093, 3.1584111999254674, 2.1489011000376195, 6.398924299981445, 2.3335402000229806, 5.219970700098202, 3.73915549996309, 3.0002062001731247, 1.8662810998503119, 2.298795700073242, 1.7444667997770011, 2.3927494999952614, 1.4669447999913245, 1.713814000133425, 2.8161700000055134, 1.4242588998749852, 1.6129151000641286, 3.8506360000465065, 1.8916502001229674, 1.9333065999671817, 3.5223394001368433, 3.5999215999618173, 6.7099870999809355, 1.8047766999807209, 2.200122300069779, 1.5492269999813288, 2.1001943999435753, 2.7488412000238895, 1.7331679998897016]","[3.3309747998137027, 4.631852000020444, 2.086968099931255, 2.8019467000849545, 11.952224700013176, 5.5300247999839485, 5.123825999908149, 2.3112669000402093, 4.253537899814546, 2.8420155998319387, 2.80018649995327, 3.15842380002141, 2.148905700072646, 6.398934199940413, 2.3335470999591053, 5.219978800043464, 3.7391639000270516, 3.0002127999905497, 1.8662874998990446, 2.2988027001265436, 1.7444741998333484, 2.3927678000181913, 1.4669514000415802, 1.7138203999493271, 2.8161778999492526, 1.4242686999496073, 1.6129233001265675, 3.8506467000115663, 1.8916583000682294, 1.9333132999017835, 3.522350599989295, 3.599928200012073, 6.709998999955133, 1.804784899810329, 2.200129200005904, 1.549234800040722, 2.1002011001110077, 2.7488480999600142, 1.733170900028199]",670502,001,2022-11-04_15h22.52.666,untitled,2022.2.2,60.02058712031989,
0.4,400,unexp,3,3,39,1,264.8627432999201,265.86246230010875,265.86246230010875,265.86246230010875,space,2.127379300072789,268.41209060987455,,268.71242300001904,268.71242300001904,268.71242300001904,788,40,"[3.3309612998273224, 4.631848699878901, 2.0869653997942805, 2.801935800118372, 11.952212899923325, 5.5300185000523925, 5.123816299950704, 2.311259899986908, 4.2535249998327345, 2.8420034998562187, 2.800177700119093, 3.1584111999254674, 2.1489011000376195, 6.398924299981445, 2.3335402000229806, 5.219970700098202, 3.73915549996309, 3.0002062001731247, 1.8662810998503119, 2.298795700073242, 1.7444667997770011, 2.3927494999952614, 1.4669447999913245, 1.713814000133425, 2.8161700000055134, 1.4242588998749852, 1.6129151000641286, 3.8506360000465065, 1.8916502001229674, 1.9333065999671817, 3.5223394001368433, 3.5999215999618173, 6.7099870999809355, 1.8047766999807209, 2.200122300069779, 1.5492269999813288, 2.1001943999435753, 2.7488412000238895, 1.7331679998897016, 2.649714299943298]","[3.3309747998137027, 4.631852000020444, 2.086968099931255, 2.8019467000849545, 11.952224700013176, 5.5300247999839485, 5.123825999908149, 2.3112669000402093, 4.253537899814546, 2.8420155998319387, 2.80018649995327, 3.15842380002141, 2.148905700072646, 6.398934199940413, 2.3335470999591053, 5.219978800043464, 3.7391639000270516, 3.0002127999905497, 1.8662874998990446, 2.2988027001265436, 1.7444741998333484, 2.3927678000181913, 1.4669514000415802, 1.7138203999493271, 2.8161778999492526, 1.4242686999496073, 1.6129233001265675, 3.8506467000115663, 1.8916583000682294, 1.9333132999017835, 3.522350599989295, 3.599928200012073, 6.709998999955133, 1.804784899810329, 2.200129200005904, 1.549234800040722, 2.1002011001110077, 2.7488480999600142, 1.733170900028199, 2.6497212001122534]",670502,001,2022-11-04_15h22.52.666,untitled,2022.2.2,60.02058712031989,
0.4,1000,exp,3,4,40,7,271.3614076001104,272.3613670000341,272.3613670000341,272.3613670000341,space,1.1366467999760062,273.9279646099079,274.22789380000904,274.22789380000904,274.22789380000904,274.22789380000904,899,41,"[3.3309612998273224, 4.631848699878901, 2.0869653997942805, 2.801935800118372, 11.952212899923325, 5.5300185000523925, 5.123816299950704, 2.311259899986908, 4.2535249998327345, 2.8420034998562187, 2.800177700119093, 3.1584111999254674, 2.1489011000376195, 6.398924299981445, 2.3335402000229806, 5.219970700098202, 3.73915549996309, 3.0002062001731247, 1.8662810998503119, 2.298795700073242, 1.7444667997770011, 2.3927494999952614, 1.4669447999913245, 1.713814000133425, 2.8161700000055134, 1.4242588998749852, 1.6129151000641286, 3.8506360000465065, 1.8916502001229674, 1.9333065999671817, 3.5223394001368433, 3.5999215999618173, 6.7099870999809355, 1.8047766999807209, 2.200122300069779, 1.5492269999813288, 2.1001943999435753, 2.7488412000238895, 1.7331679998897016, 2.649714299943298, 2.8327079999726266]","[3.3309747998137027, 4.631852000020444, 2.086968099931255, 2.8019467000849545, 11.952224700013176, 5.5300247999839485, 5.123825999908149, 2.3112669000402093, 4.253537899814546, 2.8420155998319387, 2.80018649995327, 3.15842380002141, 2.148905700072646, 6.398934199940413, 2.3335470999591053, 5.219978800043464, 3.7391639000270516, 3.0002127999905497, 1.8662874998990446, 2.2988027001265436, 1.7444741998333484, 2.3927678000181913, 1.4669514000415802, 1.7138203999493271, 2.8161778999492526, 1.4242686999496073, 1.6129233001265675, 3.8506467000115663, 1.8916583000682294, 1.9333132999017835, 3.522350599989295, 3.599928200012073, 6.709998999955133, 1.804784899810329, 2.200129200005904, 1.549234800040722, 2.1002011001110077, 2.7488480999600142, 1.733170900028199, 2.6497212001122534, 2.8327142999041826]",670502,001,2022-11-04_15h22.52.666,untitled,2022.2.2,60.02058712031989,
0.1,1000,exp,3,5,41,9,277.06043240008876,278.0605876999907,278.0605876999907,278.0605876999907,space,0.8826049000490457,279.05967070986514,,279.36721859988756,279.36721859988756,279.36721859988756,655,42,"[3.3309612998273224, 4.631848699878901, 2.0869653997942805, 2.801935800118372, 11.952212899923325, 5.5300185000523925, 5.123816299950704, 2.311259899986908, 4.2535249998327345, 2.8420034998562187, 2.800177700119093, 3.1584111999254674, 2.1489011000376195, 6.398924299981445, 2.3335402000229806, 5.219970700098202, 3.73915549996309, 3.0002062001731247, 1.8662810998503119, 2.298795700073242, 1.7444667997770011, 2.3927494999952614, 1.4669447999913245, 1.713814000133425, 2.8161700000055134, 1.4242588998749852, 1.6129151000641286, 3.8506360000465065, 1.8916502001229674, 1.9333065999671817, 3.5223394001368433, 3.5999215999618173, 6.7099870999809355, 1.8047766999807209, 2.200122300069779, 1.5492269999813288, 2.1001943999435753, 2.7488412000238895, 1.7331679998897016, 2.649714299943298, 2.8327079999726266, 1.915822499897331]","[3.3309747998137027, 4.631852000020444, 2.086968099931255, 2.8019467000849545, 11.952224700013176, 5.5300247999839485, 5.123825999908149, 2.3112669000402093, 4.253537899814546, 2.8420155998319387, 2.80018649995327, 3.15842380002141, 2.148905700072646, 6.398934199940413, 2.3335470999591053, 5.219978800043464, 3.7391639000270516, 3.0002127999905497, 1.8662874998990446, 2.2988027001265436, 1.7444741998333484, 2.3927678000181913, 1.4669514000415802, 1.7138203999493271, 2.8161778999492526, 1.4242686999496073, 1.6129233001265675, 3.8506467000115663, 1.8916583000682294, 1.9333132999017835, 3.522350599989295, 3.599928200012073, 6.709998999955133, 1.804784899810329, 2.200129200005904, 1.549234800040722, 2.1002011001110077, 2.7488480999600142, 1.733170900028199, 2.6497212001122534, 2.8327142999041826, 1.9158277998212725]",670502,001,2022-11-04_15h22.52.666,untitled,2022.2.2,60.02058712031989,
0.7,400,unexp,3,6,42,2,281.2652900000103,282.2762132000644,282.2762132000644,282.2762132000644,space,1.7552416000980884,284.7589134099893,,285.059230200015,285.059230200015,285.059230200015,989,43,"[3.3309612998273224, 4.631848699878901, 2.0869653997942805, 2.801935800118372, 11.952212899923325, 5.5300185000523925, 5.123816299950704, 2.311259899986908, 4.2535249998327345, 2.8420034998562187, 2.800177700119093, 3.1584111999254674, 2.1489011000376195, 6.398924299981445, 2.3335402000229806, 5.219970700098202, 3.73915549996309, 3.0002062001731247, 1.8662810998503119, 2.298795700073242, 1.7444667997770011, 2.3927494999952614, 1.4669447999913245, 1.713814000133425, 2.8161700000055134, 1.4242588998749852, 1.6129151000641286, 3.8506360000465065, 1.8916502001229674, 1.9333065999671817, 3.5223394001368433, 3.5999215999618173, 6.7099870999809355, 1.8047766999807209, 2.200122300069779, 1.5492269999813288, 2.1001943999435753, 2.7488412000238895, 1.7331679998897016, 2.649714299943298, 2.8327079999726266, 1.915822499897331, 6.408703000051901]","[3.3309747998137027, 4.631852000020444, 2.086968099931255, 2.8019467000849545, 11.952224700013176, 5.5300247999839485, 5.123825999908149, 2.3112669000402093, 4.253537899814546, 2.8420155998319387, 2.80018649995327, 3.15842380002141, 2.148905700072646, 6.398934199940413, 2.3335470999591053, 5.219978800043464, 3.7391639000270516, 3.0002127999905497, 1.8662874998990446, 2.2988027001265436, 1.7444741998333484, 2.3927678000181913, 1.4669514000415802, 1.7138203999493271, 2.8161778999492526, 1.4242686999496073, 1.6129233001265675, 3.8506467000115663, 1.8916583000682294, 1.9333132999017835, 3.522350599989295, 3.599928200012073, 6.709998999955133, 1.804784899810329, 2.200129200005904, 1.549234800040722, 2.1002011001110077, 2.7488480999600142, 1.733170900028199, 2.6497212001122534, 2.8327142999041826, 1.9158277998212725, 6.408714100020006]",670502,001,2022-11-04_15h22.52.666,untitled,2022.2.2,60.02058712031989,
0.7,1000,exp,3,7,43,11,291.46500100009143,292.4577822999563,292.4577822999563,292.4742276999168,space,0.43574480013921857,293.62374381008556,,293.92411389993504,293.92411389993504,293.92411389993504,022,44,"[3.3309612998273224, 4.631848699878901, 2.0869653997942805, 2.801935800118372, 11.952212899923325, 5.5300185000523925, 5.123816299950704, 2.311259899986908, 4.2535249998327345, 2.8420034998562187, 2.800177700119093, 3.1584111999254674, 2.1489011000376195, 6.398924299981445, 2.3335402000229806, 5.219970700098202, 3.73915549996309, 3.0002062001731247, 1.8662810998503119, 2.298795700073242, 1.7444667997770011, 2.3927494999952614, 1.4669447999913245, 1.713814000133425, 2.8161700000055134, 1.4242588998749852, 1.6129151000641286, 3.8506360000465065, 1.8916502001229674, 1.9333065999671817, 3.5223394001368433, 3.5999215999618173, 6.7099870999809355, 1.8047766999807209, 2.200122300069779, 1.5492269999813288, 2.1001943999435753, 2.7488412000238895, 1.7331679998897016, 2.649714299943298, 2.8327079999726266, 1.915822499897331, 6.408703000051901, 2.6770138998981565]","[3.3309747998137027, 4.631852000020444, 2.086968099931255, 2.8019467000849545, 11.952224700013176, 5.5300247999839485, 5.123825999908149, 2.3112669000402093, 4.253537899814546, 2.8420155998319387, 2.80018649995327, 3.15842380002141, 2.148905700072646, 6.398934199940413, 2.3335470999591053, 5.219978800043464, 3.7391639000270516, 3.0002127999905497, 1.8662874998990446, 2.2988027001265436, 1.7444741998333484, 2.3927678000181913, 1.4669514000415802, 1.7138203999493271, 2.8161778999492526, 1.4242686999496073, 1.6129233001265675, 3.8506467000115663, 1.8916583000682294, 1.9333132999017835, 3.522350599989295, 3.599928200012073, 6.709998999955133, 1.804784899810329, 2.200129200005904, 1.549234800040722, 2.1002011001110077, 2.7488480999600142, 1.733170900028199, 2.6497212001122534, 2.8327142999041826, 1.9158277998212725, 6.408714100020006, 2.6770223998464644]",670502,001,2022-11-04_15h22.52.666,untitled,2022.2.2,60.02058712031989,
0.1,1000,exp,3,8,44,6,296.595360300038,297.58960249996744,297.58960249996744,297.6063252000604,space,0.3969436001498252,298.1063467099797,,298.4063748999033,298.4063748999033,298.4063748999033,788,45,"[3.3309612998273224, 4.631848699878901, 2.0869653997942805, 2.801935800118372, 11.952212899923325, 5.5300185000523925, 5.123816299950704, 2.311259899986908, 4.2535249998327345, 2.8420034998562187, 2.800177700119093, 3.1584111999254674, 2.1489011000376195, 6.398924299981445, 2.3335402000229806, 5.219970700098202, 3.73915549996309, 3.0002062001731247, 1.8662810998503119, 2.298795700073242, 1.7444667997770011, 2.3927494999952614, 1.4669447999913245, 1.713814000133425, 2.8161700000055134, 1.4242588998749852, 1.6129151000641286, 3.8506360000465065, 1.8916502001229674, 1.9333065999671817, 3.5223394001368433, 3.5999215999618173, 6.7099870999809355, 1.8047766999807209, 2.200122300069779, 1.5492269999813288, 2.1001943999435753, 2.7488412000238895, 1.7331679998897016, 2.649714299943298, 2.8327079999726266, 1.915822499897331, 6.408703000051901, 2.6770138998981565, 1.7535091999452561]","[3.3309747998137027, 4.631852000020444, 2.086968099931255, 2.8019467000849545, 11.952224700013176, 5.5300247999839485, 5.123825999908149, 2.3112669000402093, 4.253537899814546, 2.8420155998319387, 2.80018649995327, 3.15842380002141, 2.148905700072646, 6.398934199940413, 2.3335470999591053, 5.219978800043464, 3.7391639000270516, 3.0002127999905497, 1.8662874998990446, 2.2988027001265436, 1.7444741998333484, 2.3927678000181913, 1.4669514000415802, 1.7138203999493271, 2.8161778999492526, 1.4242686999496073, 1.6129233001265675, 3.8506467000115663, 1.8916583000682294, 1.9333132999017835, 3.522350599989295, 3.599928200012073, 6.709998999955133, 1.804784899810329, 2.200129200005904, 1.549234800040722, 2.1002011001110077, 2.7488480999600142, 1.733170900028199, 2.6497212001122534, 2.8327142999041826, 1.9158277998212725, 6.408714100020006, 2.6770223998464644, 1.7535119000822306]",670502,001,2022-11-04_15h22.52.666,untitled,2022.2.2,60.02058712031989,
0.1,1000,exp,3,9,45,3,300.1558487000875,301.155969500076,301.155969500076,301.155969500076,space,0.4184300003107637,301.705747509934,,302.00564679992385,302.00564679992385,302.00564679992385,899,46,"[3.3309612998273224, 4.631848699878901, 2.0869653997942805, 2.801935800118372, 11.952212899923325, 5.5300185000523925, 5.123816299950704, 2.311259899986908, 4.2535249998327345, 2.8420034998562187, 2.800177700119093, 3.1584111999254674, 2.1489011000376195, 6.398924299981445, 2.3335402000229806, 5.219970700098202, 3.73915549996309, 3.0002062001731247, 1.8662810998503119, 2.298795700073242, 1.7444667997770011, 2.3927494999952614, 1.4669447999913245, 1.713814000133425, 2.8161700000055134, 1.4242588998749852, 1.6129151000641286, 3.8506360000465065, 1.8916502001229674, 1.9333065999671817, 3.5223394001368433, 3.5999215999618173, 6.7099870999809355, 1.8047766999807209, 2.200122300069779, 1.5492269999813288, 2.1001943999435753, 2.7488412000238895, 1.7331679998897016, 2.649714299943298, 2.8327079999726266, 1.915822499897331, 6.408703000051901, 2.6770138998981565, 1.7535091999452561, 2.966174300061539]","[3.3309747998137027, 4.631852000020444, 2.086968099931255, 2.8019467000849545, 11.952224700013176, 5.5300247999839485, 5.123825999908149, 2.3112669000402093, 4.253537899814546, 2.8420155998319387, 2.80018649995327, 3.15842380002141, 2.148905700072646, 6.398934199940413, 2.3335470999591053, 5.219978800043464, 3.7391639000270516, 3.0002127999905497, 1.8662874998990446, 2.2988027001265436, 1.7444741998333484, 2.3927678000181913, 1.4669514000415802, 1.7138203999493271, 2.8161778999492526, 1.4242686999496073, 1.6129233001265675, 3.8506467000115663, 1.8916583000682294, 1.9333132999017835, 3.522350599989295, 3.599928200012073, 6.709998999955133, 1.804784899810329, 2.200129200005904, 1.549234800040722, 2.1002011001110077, 2.7488480999600142, 1.733170900028199, 2.6497212001122534, 2.8327142999041826, 1.9158277998212725, 6.408714100020006, 2.6770223998464644, 1.7535119000822306, 2.966181500116363]",670502,001,2022-11-04_15h22.52.666,untitled,2022.2.2,60.02058712031989,
0.7,1000,exp,3,10,46,8,304.971557199955,305.97121009998955,305.97121009998955,305.97121009998955,space,0.327706600073725,307.0210003099404,,307.3263232000172,307.3263232000172,307.3263232000172,788,47,"[3.3309612998273224, 4.631848699878901, 2.0869653997942805, 2.801935800118372, 11.952212899923325, 5.5300185000523925, 5.123816299950704, 2.311259899986908, 4.2535249998327345, 2.8420034998562187, 2.800177700119093, 3.1584111999254674, 2.1489011000376195, 6.398924299981445, 2.3335402000229806, 5.219970700098202, 3.73915549996309, 3.0002062001731247, 1.8662810998503119, 2.298795700073242, 1.7444667997770011, 2.3927494999952614, 1.4669447999913245, 1.713814000133425, 2.8161700000055134, 1.4242588998749852, 1.6129151000641286, 3.8506360000465065, 1.8916502001229674, 1.9333065999671817, 3.5223394001368433, 3.5999215999618173, 6.7099870999809355, 1.8047766999807209, 2.200122300069779, 1.5492269999813288, 2.1001943999435753, 2.7488412000238895, 1.7331679998897016, 2.649714299943298, 2.8327079999726266, 1.915822499897331, 6.408703000051901, 2.6770138998981565, 1.7535091999452561, 2.966174300061539, 1.8834369000978768]","[3.3309747998137027, 4.631852000020444, 2.086968099931255, 2.8019467000849545, 11.952224700013176, 5.5300247999839485, 5.123825999908149, 2.3112669000402093, 4.253537899814546, 2.8420155998319387, 2.80018649995327, 3.15842380002141, 2.148905700072646, 6.398934199940413, 2.3335470999591053, 5.219978800043464, 3.7391639000270516, 3.0002127999905497, 1.8662874998990446, 2.2988027001265436, 1.7444741998333484, 2.3927678000181913, 1.4669514000415802, 1.7138203999493271, 2.8161778999492526, 1.4242686999496073, 1.6129233001265675, 3.8506467000115663, 1.8916583000682294, 1.9333132999017835, 3.522350599989295, 3.599928200012073, 6.709998999955133, 1.804784899810329, 2.200129200005904, 1.549234800040722, 2.1002011001110077, 2.7488480999600142, 1.733170900028199, 2.6497212001122534, 2.8327142999041826, 1.9158277998212725, 6.408714100020006, 2.6770223998464644, 1.7535119000822306, 2.966181500116363, 1.8834440000355244]",670502,001,2022-11-04_15h22.52.666,untitled,2022.2.2,60.02058712031989,
0.4,1000,exp,3,11,47,4,309.19981370004825,310.2036723999772,310.2036723999772,310.2036723999772,space,0.5290129000786692,311.1532954099588,,311.4539946001023,311.4539946001023,311.4539946001023,566,48,"[3.3309612998273224, 4.631848699878901, 2.0869653997942805, 2.801935800118372, 11.952212899923325, 5.5300185000523925, 5.123816299950704, 2.311259899986908, 4.2535249998327345, 2.8420034998562187, 2.800177700119093, 3.1584111999254674, 2.1489011000376195, 6.398924299981445, 2.3335402000229806, 5.219970700098202, 3.73915549996309, 3.0002062001731247, 1.8662810998503119, 2.298795700073242, 1.7444667997770011, 2.3927494999952614, 1.4669447999913245, 1.713814000133425, 2.8161700000055134, 1.4242588998749852, 1.6129151000641286, 3.8506360000465065, 1.8916502001229674, 1.9333065999671817, 3.5223394001368433, 3.5999215999618173, 6.7099870999809355, 1.8047766999807209, 2.200122300069779, 1.5492269999813288, 2.1001943999435753, 2.7488412000238895, 1.7331679998897016, 2.649714299943298, 2.8327079999726266, 1.915822499897331, 6.408703000051901, 2.6770138998981565, 1.7535091999452561, 2.966174300061539, 1.8834369000978768, 1.7156114999670535]","[3.3309747998137027, 4.631852000020444, 2.086968099931255, 2.8019467000849545, 11.952224700013176, 5.5300247999839485, 5.123825999908149, 2.3112669000402093, 4.253537899814546, 2.8420155998319387, 2.80018649995327, 3.15842380002141, 2.148905700072646, 6.398934199940413, 2.3335470999591053, 5.219978800043464, 3.7391639000270516, 3.0002127999905497, 1.8662874998990446, 2.2988027001265436, 1.7444741998333484, 2.3927678000181913, 1.4669514000415802, 1.7138203999493271, 2.8161778999492526, 1.4242686999496073, 1.6129233001265675, 3.8506467000115663, 1.8916583000682294, 1.9333132999017835, 3.522350599989295, 3.599928200012073, 6.709998999955133, 1.804784899810329, 2.200129200005904, 1.549234800040722, 2.1002011001110077, 2.7488480999600142, 1.733170900028199, 2.6497212001122534, 2.8327142999041826, 1.9158277998212725, 6.408714100020006, 2.6770223998464644, 1.7535119000822306, 2.966181500116363, 1.8834440000355244, 1.7156177998986095]",670502,001,2022-11-04_15h22.52.666,untitled,2022.2.2,60.02058712031989,
0.4,1000,exp,4,0,48,10,313.16990049998276,314.170157100074,314.170157100074,314.170157100074,space,2.192720000166446,316.7855560100637,317.08637359994464,317.08637359994464,317.08637359994464,317.08637359994464,788,49,"[3.3309612998273224, 4.631848699878901, 2.0869653997942805, 2.801935800118372, 11.952212899923325, 5.5300185000523925, 5.123816299950704, 2.311259899986908, 4.2535249998327345, 2.8420034998562187, 2.800177700119093, 3.1584111999254674, 2.1489011000376195, 6.398924299981445, 2.3335402000229806, 5.219970700098202, 3.73915549996309, 3.0002062001731247, 1.8662810998503119, 2.298795700073242, 1.7444667997770011, 2.3927494999952614, 1.4669447999913245, 1.713814000133425, 2.8161700000055134, 1.4242588998749852, 1.6129151000641286, 3.8506360000465065, 1.8916502001229674, 1.9333065999671817, 3.5223394001368433, 3.5999215999618173, 6.7099870999809355, 1.8047766999807209, 2.200122300069779, 1.5492269999813288, 2.1001943999435753, 2.7488412000238895, 1.7331679998897016, 2.649714299943298, 2.8327079999726266, 1.915822499897331, 6.408703000051901, 2.6770138998981565, 1.7535091999452561, 2.966174300061539, 1.8834369000978768, 1.7156114999670535, 2.7883536000736058]","[3.3309747998137027, 4.631852000020444, 2.086968099931255, 2.8019467000849545, 11.952224700013176, 5.5300247999839485, 5.123825999908149, 2.3112669000402093, 4.253537899814546, 2.8420155998319387, 2.80018649995327, 3.15842380002141, 2.148905700072646, 6.398934199940413, 2.3335470999591053, 5.219978800043464, 3.7391639000270516, 3.0002127999905497, 1.8662874998990446, 2.2988027001265436, 1.7444741998333484, 2.3927678000181913, 1.4669514000415802, 1.7138203999493271, 2.8161778999492526, 1.4242686999496073, 1.6129233001265675, 3.8506467000115663, 1.8916583000682294, 1.9333132999017835, 3.522350599989295, 3.599928200012073, 6.709998999955133, 1.804784899810329, 2.200129200005904, 1.549234800040722, 2.1002011001110077, 2.7488480999600142, 1.733170900028199, 2.6497212001122534, 2.8327142999041826, 1.9158277998212725, 6.408714100020006, 2.6770223998464644, 1.7535119000822306, 2.966181500116363, 1.8834440000355244, 1.7156177998986095, 2.788361500017345]",670502,001,2022-11-04_15h22.52.666,untitled,2022.2.2,60.02058712031989,
0.1,1000,exp,4,1,49,9,319.86730689997785,320.8685882000718,320.8685882000718,320.8685882000718,space,0.36817490006797016,321.36817980986086,321.6854715999216,321.6854715999216,321.6854715999216,321.6854715999216,499,50,"[3.3309612998273224, 4.631848699878901, 2.0869653997942805, 2.801935800118372, 11.952212899923325, 5.5300185000523925, 5.123816299950704, 2.311259899986908, 4.2535249998327345, 2.8420034998562187, 2.800177700119093, 3.1584111999254674, 2.1489011000376195, 6.398924299981445, 2.3335402000229806, 5.219970700098202, 3.73915549996309, 3.0002062001731247, 1.8662810998503119, 2.298795700073242, 1.7444667997770011, 2.3927494999952614, 1.4669447999913245, 1.713814000133425, 2.8161700000055134, 1.4242588998749852, 1.6129151000641286, 3.8506360000465065, 1.8916502001229674, 1.9333065999671817, 3.5223394001368433, 3.5999215999618173, 6.7099870999809355, 1.8047766999807209, 2.200122300069779, 1.5492269999813288, 2.1001943999435753, 2.7488412000238895, 1.7331679998897016, 2.649714299943298, 2.8327079999726266, 1.915822499897331, 6.408703000051901, 2.6770138998981565, 1.7535091999452561, 2.966174300061539, 1.8834369000978768, 1.7156114999670535, 2.7883536000736058, 2.0445910999551415]","[3.3309747998137027, 4.631852000020444, 2.086968099931255, 2.8019467000849545, 11.952224700013176, 5.5300247999839485, 5.123825999908149, 2.3112669000402093, 4.253537899814546, 2.8420155998319387, 2.80018649995327, 3.15842380002141, 2.148905700072646, 6.398934199940413, 2.3335470999591053, 5.219978800043464, 3.7391639000270516, 3.0002127999905497, 1.8662874998990446, 2.2988027001265436, 1.7444741998333484, 2.3927678000181913, 1.4669514000415802, 1.7138203999493271, 2.8161778999492526, 1.4242686999496073, 1.6129233001265675, 3.8506467000115663, 1.8916583000682294, 1.9333132999017835, 3.522350599989295, 3.599928200012073, 6.709998999955133, 1.804784899810329, 2.200129200005904, 1.549234800040722, 2.1002011001110077, 2.7488480999600142, 1.733170900028199, 2.6497212001122534, 2.8327142999041826, 1.9158277998212725, 6.408714100020006, 2.6770223998464644, 1.7535119000822306, 2.966181500116363, 1.8834440000355244, 1.7156177998986095, 2.788361500017345, 2.044597700005397]",670502,001,2022-11-04_15h22.52.666,untitled,2022.2.2,60.02058712031989,
0.7,400,unexp,4,2,50,2,323.7178694999311,324.71756440005265,324.71756440005265,324.71756440005265,space,0.5969924002420157,326.03381570996714,326.3413998000324,326.3413998000324,326.3413998000324,326.3413998000324,488,51,"[3.3309612998273224, 4.631848699878901, 2.0869653997942805, 2.801935800118372, 11.952212899923325, 5.5300185000523925, 5.123816299950704, 2.311259899986908, 4.2535249998327345, 2.8420034998562187, 2.800177700119093, 3.1584111999254674, 2.1489011000376195, 6.398924299981445, 2.3335402000229806, 5.219970700098202, 3.73915549996309, 3.0002062001731247, 1.8662810998503119, 2.298795700073242, 1.7444667997770011, 2.3927494999952614, 1.4669447999913245, 1.713814000133425, 2.8161700000055134, 1.4242588998749852, 1.6129151000641286, 3.8506360000465065, 1.8916502001229674, 1.9333065999671817, 3.5223394001368433, 3.5999215999618173, 6.7099870999809355, 1.8047766999807209, 2.200122300069779, 1.5492269999813288, 2.1001943999435753, 2.7488412000238895, 1.7331679998897016, 2.649714299943298, 2.8327079999726266, 1.915822499897331, 6.408703000051901, 2.6770138998981565, 1.7535091999452561, 2.966174300061539, 1.8834369000978768, 1.7156114999670535, 2.7883536000736058, 2.0445910999551415, 1.4329639000352472]","[3.3309747998137027, 4.631852000020444, 2.086968099931255, 2.8019467000849545, 11.952224700013176, 5.5300247999839485, 5.123825999908149, 2.3112669000402093, 4.253537899814546, 2.8420155998319387, 2.80018649995327, 3.15842380002141, 2.148905700072646, 6.398934199940413, 2.3335470999591053, 5.219978800043464, 3.7391639000270516, 3.0002127999905497, 1.8662874998990446, 2.2988027001265436, 1.7444741998333484, 2.3927678000181913, 1.4669514000415802, 1.7138203999493271, 2.8161778999492526, 1.4242686999496073, 1.6129233001265675, 3.8506467000115663, 1.8916583000682294, 1.9333132999017835, 3.522350599989295, 3.599928200012073, 6.709998999955133, 1.804784899810329, 2.200129200005904, 1.549234800040722, 2.1002011001110077, 2.7488480999600142, 1.733170900028199, 2.6497212001122534, 2.8327142999041826, 1.9158277998212725, 6.408714100020006, 2.6770223998464644, 1.7535119000822306, 2.966181500116363, 1.8834440000355244, 1.7156177998986095, 2.788361500017345, 2.044597700005397, 1.4329754998907447]",670502,001,2022-11-04_15h22.52.666,untitled,2022.2.2,60.02058712031989,
0.7,1000,exp,4,3,51,5,327.7673289999366,328.7668234000448,328.7668234000448,328.7668234000448,space,0.5531081003136933,330.05002390998413,330.35001470008865,330.35001470008865,330.35001470008865,330.35001470008865,877,52,"[3.3309612998273224, 4.631848699878901, 2.0869653997942805, 2.801935800118372, 11.952212899923325, 5.5300185000523925, 5.123816299950704, 2.311259899986908, 4.2535249998327345, 2.8420034998562187, 2.800177700119093, 3.1584111999254674, 2.1489011000376195, 6.398924299981445, 2.3335402000229806, 5.219970700098202, 3.73915549996309, 3.0002062001731247, 1.8662810998503119, 2.298795700073242, 1.7444667997770011, 2.3927494999952614, 1.4669447999913245, 1.713814000133425, 2.8161700000055134, 1.4242588998749852, 1.6129151000641286, 3.8506360000465065, 1.8916502001229674, 1.9333065999671817, 3.5223394001368433, 3.5999215999618173, 6.7099870999809355, 1.8047766999807209, 2.200122300069779, 1.5492269999813288, 2.1001943999435753, 2.7488412000238895, 1.7331679998897016, 2.649714299943298, 2.8327079999726266, 1.915822499897331, 6.408703000051901, 2.6770138998981565, 1.7535091999452561, 2.966174300061539, 1.8834369000978768, 1.7156114999670535, 2.7883536000736058, 2.0445910999551415, 1.4329639000352472, 2.798939700005576]","[3.3309747998137027, 4.631852000020444, 2.086968099931255, 2.8019467000849545, 11.952224700013176, 5.5300247999839485, 5.123825999908149, 2.3112669000402093, 4.253537899814546, 2.8420155998319387, 2.80018649995327, 3.15842380002141, 2.148905700072646, 6.398934199940413, 2.3335470999591053, 5.219978800043464, 3.7391639000270516, 3.0002127999905497, 1.8662874998990446, 2.2988027001265436, 1.7444741998333484, 2.3927678000181913, 1.4669514000415802, 1.7138203999493271, 2.8161778999492526, 1.4242686999496073, 1.6129233001265675, 3.8506467000115663, 1.8916583000682294, 1.9333132999017835, 3.522350599989295, 3.599928200012073, 6.709998999955133, 1.804784899810329, 2.200129200005904, 1.549234800040722, 2.1002011001110077, 2.7488480999600142, 1.733170900028199, 2.6497212001122534, 2.8327142999041826, 1.9158277998212725, 6.408714100020006, 2.6770223998464644, 1.7535119000822306, 2.966181500116363, 1.8834440000355244, 1.7156177998986095, 2.788361500017345, 2.044597700005397, 1.4329754998907447, 2.79894239990972]",670502,001,2022-11-04_15h22.52.666,untitled,2022.2.2,60.02058712031989,
0.7,1000,exp,4,4,52,8,333.1493375999853,334.1490746999625,334.1490746999625,334.1490746999625,space,0.5739567000418901,335.4490178100299,,335.7493712999858,335.7493712999858,335.7493712999858,933,53,"[3.3309612998273224, 4.631848699878901, 2.0869653997942805, 2.801935800118372, 11.952212899923325, 5.5300185000523925, 5.123816299950704, 2.311259899986908, 4.2535249998327345, 2.8420034998562187, 2.800177700119093, 3.1584111999254674, 2.1489011000376195, 6.398924299981445, 2.3335402000229806, 5.219970700098202, 3.73915549996309, 3.0002062001731247, 1.8662810998503119, 2.298795700073242, 1.7444667997770011, 2.3927494999952614, 1.4669447999913245, 1.713814000133425, 2.8161700000055134, 1.4242588998749852, 1.6129151000641286, 3.8506360000465065, 1.8916502001229674, 1.9333065999671817, 3.5223394001368433, 3.5999215999618173, 6.7099870999809355, 1.8047766999807209, 2.200122300069779, 1.5492269999813288, 2.1001943999435753, 2.7488412000238895, 1.7331679998897016, 2.649714299943298, 2.8327079999726266, 1.915822499897331, 6.408703000051901, 2.6770138998981565, 1.7535091999452561, 2.966174300061539, 1.8834369000978768, 1.7156114999670535, 2.7883536000736058, 2.0445910999551415, 1.4329639000352472, 2.798939700005576, 1.6326846000738442]","[3.3309747998137027, 4.631852000020444, 2.086968099931255, 2.8019467000849545, 11.952224700013176, 5.5300247999839485, 5.123825999908149, 2.3112669000402093, 4.253537899814546, 2.8420155998319387, 2.80018649995327, 3.15842380002141, 2.148905700072646, 6.398934199940413, 2.3335470999591053, 5.219978800043464, 3.7391639000270516, 3.0002127999905497, 1.8662874998990446, 2.2988027001265436, 1.7444741998333484, 2.3927678000181913, 1.4669514000415802, 1.7138203999493271, 2.8161778999492526, 1.4242686999496073, 1.6129233001265675, 3.8506467000115663, 1.8916583000682294, 1.9333132999017835, 3.522350599989295, 3.599928200012073, 6.709998999955133, 1.804784899810329, 2.200129200005904, 1.549234800040722, 2.1002011001110077, 2.7488480999600142, 1.733170900028199, 2.6497212001122534, 2.8327142999041826, 1.9158277998212725, 6.408714100020006, 2.6770223998464644, 1.7535119000822306, 2.966181500116363, 1.8834440000355244, 1.7156177998986095, 2.788361500017345, 2.044597700005397, 1.4329754998907447, 2.79894239990972, 1.6326874000951648]",670502,001,2022-11-04_15h22.52.666,untitled,2022.2.2,60.02058712031989,
0.7,1000,exp,4,5,53,11,337.3819444999099,338.38161660009064,338.38161660009064,338.38161660009064,space,0.765115600079298,339.864663909981,340.1647693000268,340.1647693000268,340.1647693000268,340.1647693000268,933,54,"[3.3309612998273224, 4.631848699878901, 2.0869653997942805, 2.801935800118372, 11.952212899923325, 5.5300185000523925, 5.123816299950704, 2.311259899986908, 4.2535249998327345, 2.8420034998562187, 2.800177700119093, 3.1584111999254674, 2.1489011000376195, 6.398924299981445, 2.3335402000229806, 5.219970700098202, 3.73915549996309, 3.0002062001731247, 1.8662810998503119, 2.298795700073242, 1.7444667997770011, 2.3927494999952614, 1.4669447999913245, 1.713814000133425, 2.8161700000055134, 1.4242588998749852, 1.6129151000641286, 3.8506360000465065, 1.8916502001229674, 1.9333065999671817, 3.5223394001368433, 3.5999215999618173, 6.7099870999809355, 1.8047766999807209, 2.200122300069779, 1.5492269999813288, 2.1001943999435753, 2.7488412000238895, 1.7331679998897016, 2.649714299943298, 2.8327079999726266, 1.915822499897331, 6.408703000051901, 2.6770138998981565, 1.7535091999452561, 2.966174300061539, 1.8834369000978768, 1.7156114999670535, 2.7883536000736058, 2.0445910999551415, 1.4329639000352472, 2.798939700005576, 1.6326846000738442, 3.780064799822867]","[3.3309747998137027, 4.631852000020444, 2.086968099931255, 2.8019467000849545, 11.952224700013176, 5.5300247999839485, 5.123825999908149, 2.3112669000402093, 4.253537899814546, 2.8420155998319387, 2.80018649995327, 3.15842380002141, 2.148905700072646, 6.398934199940413, 2.3335470999591053, 5.219978800043464, 3.7391639000270516, 3.0002127999905497, 1.8662874998990446, 2.2988027001265436, 1.7444741998333484, 2.3927678000181913, 1.4669514000415802, 1.7138203999493271, 2.8161778999492526, 1.4242686999496073, 1.6129233001265675, 3.8506467000115663, 1.8916583000682294, 1.9333132999017835, 3.522350599989295, 3.599928200012073, 6.709998999955133, 1.804784899810329, 2.200129200005904, 1.549234800040722, 2.1002011001110077, 2.7488480999600142, 1.733170900028199, 2.6497212001122534, 2.8327142999041826, 1.9158277998212725, 6.408714100020006, 2.6770223998464644, 1.7535119000822306, 2.966181500116363, 1.8834440000355244, 1.7156177998986095, 2.788361500017345, 2.044597700005397, 1.4329754998907447, 2.79894239990972, 1.6326874000951648, 3.7800717998761684]",670502,001,2022-11-04_15h22.52.666,untitled,2022.2.2,60.02058712031989,
0.1,1000,exp,4,6,54,6,343.947150999913,344.94709159992635,344.94709159992635,344.94709159992635,space,1.6311545001808554,346.6802296099253,346.9904885001015,346.9904885001015,346.9904885001015,346.9904885001015,566,55,"[3.3309612998273224, 4.631848699878901, 2.0869653997942805, 2.801935800118372, 11.952212899923325, 5.5300185000523925, 5.123816299950704, 2.311259899986908, 4.2535249998327345, 2.8420034998562187, 2.800177700119093, 3.1584111999254674, 2.1489011000376195, 6.398924299981445, 2.3335402000229806, 5.219970700098202, 3.73915549996309, 3.0002062001731247, 1.8662810998503119, 2.298795700073242, 1.7444667997770011, 2.3927494999952614, 1.4669447999913245, 1.713814000133425, 2.8161700000055134, 1.4242588998749852, 1.6129151000641286, 3.8506360000465065, 1.8916502001229674, 1.9333065999671817, 3.5223394001368433, 3.5999215999618173, 6.7099870999809355, 1.8047766999807209, 2.200122300069779, 1.5492269999813288, 2.1001943999435753, 2.7488412000238895, 1.7331679998897016, 2.649714299943298, 2.8327079999726266, 1.915822499897331, 6.408703000051901, 2.6770138998981565, 1.7535091999452561, 2.966174300061539, 1.8834369000978768, 1.7156114999670535, 2.7883536000736058, 2.0445910999551415, 1.4329639000352472, 2.798939700005576, 1.6326846000738442, 3.780064799822867, 4.01521630003117]","[3.3309747998137027, 4.631852000020444, 2.086968099931255, 2.8019467000849545, 11.952224700013176, 5.5300247999839485, 5.123825999908149, 2.3112669000402093, 4.253537899814546, 2.8420155998319387, 2.80018649995327, 3.15842380002141, 2.148905700072646, 6.398934199940413, 2.3335470999591053, 5.219978800043464, 3.7391639000270516, 3.0002127999905497, 1.8662874998990446, 2.2988027001265436, 1.7444741998333484, 2.3927678000181913, 1.4669514000415802, 1.7138203999493271, 2.8161778999492526, 1.4242686999496073, 1.6129233001265675, 3.8506467000115663, 1.8916583000682294, 1.9333132999017835, 3.522350599989295, 3.599928200012073, 6.709998999955133, 1.804784899810329, 2.200129200005904, 1.549234800040722, 2.1002011001110077, 2.7488480999600142, 1.733170900028199, 2.6497212001122534, 2.8327142999041826, 1.9158277998212725, 6.408714100020006, 2.6770223998464644, 1.7535119000822306, 2.966181500116363, 1.8834440000355244, 1.7156177998986095, 2.788361500017345, 2.044597700005397, 1.4329754998907447, 2.79894239990972, 1.6326874000951648, 3.7800717998761684, 4.015223100082949]",670502,001,2022-11-04_15h22.52.666,untitled,2022.2.2,60.02058712031989,
0.1,400,unexp,4,7,55,0,350.99560100003146,351.9959497000091,351.9959497000091,351.9959497000091,space,0.5758241000585258,352.67896430995313,,352.9793410000857,352.9793410000857,352.9793410000857,980,56,"[3.3309612998273224, 4.631848699878901, 2.0869653997942805, 2.801935800118372, 11.952212899923325, 5.5300185000523925, 5.123816299950704, 2.311259899986908, 4.2535249998327345, 2.8420034998562187, 2.800177700119093, 3.1584111999254674, 2.1489011000376195, 6.398924299981445, 2.3335402000229806, 5.219970700098202, 3.73915549996309, 3.0002062001731247, 1.8662810998503119, 2.298795700073242, 1.7444667997770011, 2.3927494999952614, 1.4669447999913245, 1.713814000133425, 2.8161700000055134, 1.4242588998749852, 1.6129151000641286, 3.8506360000465065, 1.8916502001229674, 1.9333065999671817, 3.5223394001368433, 3.5999215999618173, 6.7099870999809355, 1.8047766999807209, 2.200122300069779, 1.5492269999813288, 2.1001943999435753, 2.7488412000238895, 1.7331679998897016, 2.649714299943298, 2.8327079999726266, 1.915822499897331, 6.408703000051901, 2.6770138998981565, 1.7535091999452561, 2.966174300061539, 1.8834369000978768, 1.7156114999670535, 2.7883536000736058, 2.0445910999551415, 1.4329639000352472, 2.798939700005576, 1.6326846000738442, 3.780064799822867, 4.01521630003117, 2.2100309999659657]","[3.3309747998137027, 4.631852000020444, 2.086968099931255, 2.8019467000849545, 11.952224700013176, 5.5300247999839485, 5.123825999908149, 2.3112669000402093, 4.253537899814546, 2.8420155998319387, 2.80018649995327, 3.15842380002141, 2.148905700072646, 6.398934199940413, 2.3335470999591053, 5.219978800043464, 3.7391639000270516, 3.0002127999905497, 1.8662874998990446, 2.2988027001265436, 1.7444741998333484, 2.3927678000181913, 1.4669514000415802, 1.7138203999493271, 2.8161778999492526, 1.4242686999496073, 1.6129233001265675, 3.8506467000115663, 1.8916583000682294, 1.9333132999017835, 3.522350599989295, 3.599928200012073, 6.709998999955133, 1.804784899810329, 2.200129200005904, 1.549234800040722, 2.1002011001110077, 2.7488480999600142, 1.733170900028199, 2.6497212001122534, 2.8327142999041826, 1.9158277998212725, 6.408714100020006, 2.6770223998464644, 1.7535119000822306, 2.966181500116363, 1.8834440000355244, 1.7156177998986095, 2.788361500017345, 2.044597700005397, 1.4329754998907447, 2.79894239990972, 1.6326874000951648, 3.7800717998761684, 4.015223100082949, 2.210042499937117]",670502,001,2022-11-04_15h22.52.666,untitled,2022.2.2,60.02058712031989,
0.4,1000,exp,4,8,56,4,355.18640049989335,356.17823929991573,356.17823929991573,356.1948649000842,space,0.8764111001510173,357.4779441099148,357.78154150000773,357.78154150000773,357.78154150000773,357.78154150000773,678,57,"[3.3309612998273224, 4.631848699878901, 2.0869653997942805, 2.801935800118372, 11.952212899923325, 5.5300185000523925, 5.123816299950704, 2.311259899986908, 4.2535249998327345, 2.8420034998562187, 2.800177700119093, 3.1584111999254674, 2.1489011000376195, 6.398924299981445, 2.3335402000229806, 5.219970700098202, 3.73915549996309, 3.0002062001731247, 1.8662810998503119, 2.298795700073242, 1.7444667997770011, 2.3927494999952614, 1.4669447999913245, 1.713814000133425, 2.8161700000055134, 1.4242588998749852, 1.6129151000641286, 3.8506360000465065, 1.8916502001229674, 1.9333065999671817, 3.5223394001368433, 3.5999215999618173, 6.7099870999809355, 1.8047766999807209, 2.200122300069779, 1.5492269999813288, 2.1001943999435753, 2.7488412000238895, 1.7331679998897016, 2.649714299943298, 2.8327079999726266, 1.915822499897331, 6.408703000051901, 2.6770138998981565, 1.7535091999452561, 2.966174300061539, 1.8834369000978768, 1.7156114999670535, 2.7883536000736058, 2.0445910999551415, 1.4329639000352472, 2.798939700005576, 1.6326846000738442, 3.780064799822867, 4.01521630003117, 2.2100309999659657, 2.616480100201443]","[3.3309747998137027, 4.631852000020444, 2.086968099931255, 2.8019467000849545, 11.952224700013176, 5.5300247999839485, 5.123825999908149, 2.3112669000402093, 4.253537899814546, 2.8420155998319387, 2.80018649995327, 3.15842380002141, 2.148905700072646, 6.398934199940413, 2.3335470999591053, 5.219978800043464, 3.7391639000270516, 3.0002127999905497, 1.8662874998990446, 2.2988027001265436, 1.7444741998333484, 2.3927678000181913, 1.4669514000415802, 1.7138203999493271, 2.8161778999492526, 1.4242686999496073, 1.6129233001265675, 3.8506467000115663, 1.8916583000682294, 1.9333132999017835, 3.522350599989295, 3.599928200012073, 6.709998999955133, 1.804784899810329, 2.200129200005904, 1.549234800040722, 2.1002011001110077, 2.7488480999600142, 1.733170900028199, 2.6497212001122534, 2.8327142999041826, 1.9158277998212725, 6.408714100020006, 2.6770223998464644, 1.7535119000822306, 2.966181500116363, 1.8834440000355244, 1.7156177998986095, 2.788361500017345, 2.044597700005397, 1.4329754998907447, 2.79894239990972, 1.6326874000951648, 3.7800717998761684, 4.015223100082949, 2.210042499937117, 2.616495800204575]",670502,001,2022-11-04_15h22.52.666,untitled,2022.2.2,60.02058712031989,
0.4,400,unexp,4,9,57,1,360.3873626999557,361.3940349998884,361.3940349998884,361.3940349998884,space,0.4362319002393633,362.26047850991597,,362.56066729989834,362.56066729989834,362.56066729989834,456,58,"[3.3309612998273224, 4.631848699878901, 2.0869653997942805, 2.801935800118372, 11.952212899923325, 5.5300185000523925, 5.123816299950704, 2.311259899986908, 4.2535249998327345, 2.8420034998562187, 2.800177700119093, 3.1584111999254674, 2.1489011000376195, 6.398924299981445, 2.3335402000229806, 5.219970700098202, 3.73915549996309, 3.0002062001731247, 1.8662810998503119, 2.298795700073242, 1.7444667997770011, 2.3927494999952614, 1.4669447999913245, 1.713814000133425, 2.8161700000055134, 1.4242588998749852, 1.6129151000641286, 3.8506360000465065, 1.8916502001229674, 1.9333065999671817, 3.5223394001368433, 3.5999215999618173, 6.7099870999809355, 1.8047766999807209, 2.200122300069779, 1.5492269999813288, 2.1001943999435753, 2.7488412000238895, 1.7331679998897016, 2.649714299943298, 2.8327079999726266, 1.915822499897331, 6.408703000051901, 2.6770138998981565, 1.7535091999452561, 2.966174300061539, 1.8834369000978768, 1.7156114999670535, 2.7883536000736058, 2.0445910999551415, 1.4329639000352472, 2.798939700005576, 1.6326846000738442, 3.780064799822867, 4.01521630003117, 2.2100309999659657, 2.616480100201443, 2.393477500183508]","[3.3309747998137027, 4.631852000020444, 2.086968099931255, 2.8019467000849545, 11.952224700013176, 5.5300247999839485, 5.123825999908149, 2.3112669000402093, 4.253537899814546, 2.8420155998319387, 2.80018649995327, 3.15842380002141, 2.148905700072646, 6.398934199940413, 2.3335470999591053, 5.219978800043464, 3.7391639000270516, 3.0002127999905497, 1.8662874998990446, 2.2988027001265436, 1.7444741998333484, 2.3927678000181913, 1.4669514000415802, 1.7138203999493271, 2.8161778999492526, 1.4242686999496073, 1.6129233001265675, 3.8506467000115663, 1.8916583000682294, 1.9333132999017835, 3.522350599989295, 3.599928200012073, 6.709998999955133, 1.804784899810329, 2.200129200005904, 1.549234800040722, 2.1002011001110077, 2.7488480999600142, 1.733170900028199, 2.6497212001122534, 2.8327142999041826, 1.9158277998212725, 6.408714100020006, 2.6770223998464644, 1.7535119000822306, 2.966181500116363, 1.8834440000355244, 1.7156177998986095, 2.788361500017345, 2.044597700005397, 1.4329754998907447, 2.79894239990972, 1.6326874000951648, 3.7800717998761684, 4.015223100082949, 2.210042499937117, 2.616495800204575, 2.393489500042051]",670502,001,2022-11-04_15h22.52.666,untitled,2022.2.2,60.02058712031989,
0.1,1000,exp,4,10,58,3,364.95129880006425,365.9431000999175,365.9431000999175,365.9594692001119,space,0.488615500042215,366.5594127099961,,366.87731810007244,366.87731810007244,366.87731810007244,324,59,"[3.3309612998273224, 4.631848699878901, 2.0869653997942805, 2.801935800118372, 11.952212899923325, 5.5300185000523925, 5.123816299950704, 2.311259899986908, 4.2535249998327345, 2.8420034998562187, 2.800177700119093, 3.1584111999254674, 2.1489011000376195, 6.398924299981445, 2.3335402000229806, 5.219970700098202, 3.73915549996309, 3.0002062001731247, 1.8662810998503119, 2.298795700073242, 1.7444667997770011, 2.3927494999952614, 1.4669447999913245, 1.713814000133425, 2.8161700000055134, 1.4242588998749852, 1.6129151000641286, 3.8506360000465065, 1.8916502001229674, 1.9333065999671817, 3.5223394001368433, 3.5999215999618173, 6.7099870999809355, 1.8047766999807209, 2.200122300069779, 1.5492269999813288, 2.1001943999435753, 2.7488412000238895, 1.7331679998897016, 2.649714299943298, 2.8327079999726266, 1.915822499897331, 6.408703000051901, 2.6770138998981565, 1.7535091999452561, 2.966174300061539, 1.8834369000978768, 1.7156114999670535, 2.7883536000736058, 2.0445910999551415, 1.4329639000352472, 2.798939700005576, 1.6326846000738442, 3.780064799822867, 4.01521630003117, 2.2100309999659657, 2.616480100201443, 2.393477500183508, 2.833725100150332]","[3.3309747998137027, 4.631852000020444, 2.086968099931255, 2.8019467000849545, 11.952224700013176, 5.5300247999839485, 5.123825999908149, 2.3112669000402093, 4.253537899814546, 2.8420155998319387, 2.80018649995327, 3.15842380002141, 2.148905700072646, 6.398934199940413, 2.3335470999591053, 5.219978800043464, 3.7391639000270516, 3.0002127999905497, 1.8662874998990446, 2.2988027001265436, 1.7444741998333484, 2.3927678000181913, 1.4669514000415802, 1.7138203999493271, 2.8161778999492526, 1.4242686999496073, 1.6129233001265675, 3.8506467000115663, 1.8916583000682294, 1.9333132999017835, 3.522350599989295, 3.599928200012073, 6.709998999955133, 1.804784899810329, 2.200129200005904, 1.549234800040722, 2.1002011001110077, 2.7488480999600142, 1.733170900028199, 2.6497212001122534, 2.8327142999041826, 1.9158277998212725, 6.408714100020006, 2.6770223998464644, 1.7535119000822306, 2.966181500116363, 1.8834440000355244, 1.7156177998986095, 2.788361500017345, 2.044597700005397, 1.4329754998907447, 2.79894239990972, 1.6326874000951648, 3.7800717998761684, 4.015223100082949, 2.210042499937117, 2.616495800204575, 2.393489500042051, 2.833739700028673]",670502,001,2022-11-04_15h22.52.666,untitled,2022.2.2,60.02058712031989,
0.4,1000,exp,4,11,59,7,369.6932254000567,370.69198819994926,370.69198819994926,370.70859479997307,space,0.1494158001150936,371.25861061001194,,371.5588964000344,371.5588964000344,371.5588964000344,790,60,"[3.3309612998273224, 4.631848699878901, 2.0869653997942805, 2.801935800118372, 11.952212899923325, 5.5300185000523925, 5.123816299950704, 2.311259899986908, 4.2535249998327345, 2.8420034998562187, 2.800177700119093, 3.1584111999254674, 2.1489011000376195, 6.398924299981445, 2.3335402000229806, 5.219970700098202, 3.73915549996309, 3.0002062001731247, 1.8662810998503119, 2.298795700073242, 1.7444667997770011, 2.3927494999952614, 1.4669447999913245, 1.713814000133425, 2.8161700000055134, 1.4242588998749852, 1.6129151000641286, 3.8506360000465065, 1.8916502001229674, 1.9333065999671817, 3.5223394001368433, 3.5999215999618173, 6.7099870999809355, 1.8047766999807209, 2.200122300069779, 1.5492269999813288, 2.1001943999435753, 2.7488412000238895, 1.7331679998897016, 2.649714299943298, 2.8327079999726266, 1.915822499897331, 6.408703000051901, 2.6770138998981565, 1.7535091999452561, 2.966174300061539, 1.8834369000978768, 1.7156114999670535, 2.7883536000736058, 2.0445910999551415, 1.4329639000352472, 2.798939700005576, 1.6326846000738442, 3.780064799822867, 4.01521630003117, 2.2100309999659657, 2.616480100201443, 2.393477500183508, 2.833725100150332, 2.7491322001442313]","[3.3309747998137027, 4.631852000020444, 2.086968099931255, 2.8019467000849545, 11.952224700013176, 5.5300247999839485, 5.123825999908149, 2.3112669000402093, 4.253537899814546, 2.8420155998319387, 2.80018649995327, 3.15842380002141, 2.148905700072646, 6.398934199940413, 2.3335470999591053, 5.219978800043464, 3.7391639000270516, 3.0002127999905497, 1.8662874998990446, 2.2988027001265436, 1.7444741998333484, 2.3927678000181913, 1.4669514000415802, 1.7138203999493271, 2.8161778999492526, 1.4242686999496073, 1.6129233001265675, 3.8506467000115663, 1.8916583000682294, 1.9333132999017835, 3.522350599989295, 3.599928200012073, 6.709998999955133, 1.804784899810329, 2.200129200005904, 1.549234800040722, 2.1002011001110077, 2.7488480999600142, 1.733170900028199, 2.6497212001122534, 2.8327142999041826, 1.9158277998212725, 6.408714100020006, 2.6770223998464644, 1.7535119000822306, 2.966181500116363, 1.8834440000355244, 1.7156177998986095, 2.788361500017345, 2.044597700005397, 1.4329754998907447, 2.79894239990972, 1.6326874000951648, 3.7800717998761684, 4.015223100082949, 2.210042499937117, 2.616495800204575, 2.393489500042051, 2.833739700028673, 2.7491392001975328]",670502,001,2022-11-04_15h22.52.666,untitled,2022.2.2,60.02058712031989,
